kx (1/m)	Eigenfrequency (Hz)	real(freq) (Hz)
0.0000	0.059052	0.059052
0.0000	0.24408	0.24408
0.0000	0.33001	0.33001
0.0000	0.93252	0.93252
0.0000	1.3641	1.3641
0.0000	1.7816	1.7816
0.0000	2.8774	2.8774
0.0000	3.8564	3.8564
0.0000	4.1720	4.1720
0.0000	5.2738	5.2738
0.0000	6.6774	6.6774
0.0000	7.3845	7.3845
0.0000	8.4637	8.4637
0.0000	10.670	10.670
0.0000	12.043	12.043
0.0000	12.453	12.453
0.0000	14.352	14.352
0.0000	16.904	16.904
0.0000	18.257	18.257
0.0000	19.413	19.413
0.0000	21.240	21.240
0.0000	24.658	24.658
0.0000	25.499	25.499
0.0000	27.512	27.512
0.0000	29.438	29.438
0.031416	5.0313	5.0313
0.031416	5.7348	5.7348
0.031416	6.0542	6.0542
0.031416	6.1126	6.1126
0.031416	6.4371	6.4371
0.031416	7.0812	7.0812
0.031416	7.9111	7.9111
0.031416	9.3211	9.3211
0.031416	10.798	10.798
0.031416	12.515	12.515
0.031416	14.393	14.393
0.031416	16.275	16.275
0.031416	18.593	18.593
0.031416	20.535	20.535
0.031416	22.845	22.845
0.031416	25.002	25.002
0.031416	25.021	25.021
0.031416	25.215	25.215
0.031416	25.668	25.668
0.031416	26.584	26.584
0.031416	27.518	27.518
0.031416	28.409	28.409
0.031416	30.377	30.377
0.031416	31.131	31.131
0.031416	34.385	34.385
0.031416	34.979	34.979
0.031416	36.528	36.528
0.031416	40.034	40.034
0.031416	40.760	40.760
0.031416	43.360	43.360
0.031416	45.995	45.995
0.031416	48.494	48.494
0.031416	50.134	50.134
0.031416	52.340	52.340
0.031416	56.295	56.295
0.031416	58.383	58.383
0.031416	59.467	59.467
0.031416	62.941	62.941
0.031416	66.965	66.965
0.031416	68.817	68.817
0.031416	70.024	70.024
0.031416	74.578	74.578
0.031416	77.368	77.368
0.031416	79.881	79.881
0.031416	82.231	82.231
0.031416	84.868	84.868
0.031416	89.900	89.900
0.031416	92.474	92.474
0.031416	93.791	93.791
0.031416	97.585	97.585
0.062832	6.8437	6.8437
0.062832	10.079	10.079
0.062832	11.581	11.581
0.062832	12.100	12.100
0.062832	12.125	12.125
0.062832	12.265	12.265
0.062832	12.614	12.614
0.062832	13.065	13.065
0.062832	14.160	14.160
0.062832	16.006	16.006
0.062832	17.963	17.963
0.062832	19.487	19.487
0.062832	20.960	20.960
0.062832	22.970	22.970
0.062832	25.849	25.849
0.062832	28.307	28.307
0.062832	31.053	31.053
0.062832	33.797	33.797
0.062832	36.027	36.027
0.062832	38.874	38.874
0.062832	42.455	42.455
0.062832	44.665	44.665
0.062832	47.975	47.975
0.062832	50.003	50.003
0.062832	50.048	50.048
0.062832	50.204	50.204
0.062832	50.579	50.579
0.062832	51.035	51.035
0.062832	51.818	51.818
0.062832	52.814	52.814
0.062832	54.267	54.267
0.062832	55.708	55.708
0.062832	58.264	58.264
0.062832	59.147	59.147
0.062832	60.907	60.907
0.062832	64.078	64.078
0.062832	65.232	65.232
0.062832	67.700	67.700
0.062832	71.165	71.165
0.062832	71.969	71.969
0.062832	75.100	75.100
0.062832	78.372	78.372
0.062832	80.142	80.142
0.062832	82.671	82.671
0.062832	85.595	85.595
0.062832	90.078	90.078
0.062832	90.310	90.310
0.062832	93.024	93.024
0.062832	97.965	97.965
0.062832	100.56	100.56
0.094248	8.3559	8.3559
0.094248	11.185	11.185
0.094248	15.643	15.643
0.094248	18.147	18.147
0.094248	18.163	18.163
0.094248	18.243	18.243
0.094248	18.455	18.455
0.094248	18.716	18.716
0.094248	19.100	19.100
0.094248	19.631	19.631
0.094248	20.999	20.999
0.094248	23.091	23.091
0.094248	24.996	24.996
0.094248	26.099	26.099
0.094248	27.810	27.810
0.094248	30.808	30.808
0.094248	33.915	33.915
0.094248	36.389	36.389
0.094248	38.946	38.946
0.094248	41.501	41.501
0.094248	44.062	44.062
0.094248	47.360	47.360
0.094248	50.888	50.888
0.094248	53.413	53.413
0.094248	57.085	57.085
0.094248	59.743	59.743
0.094248	62.931	62.931
0.094248	66.702	66.702
0.094248	69.247	69.247
0.094248	73.304	73.304
0.094248	75.003	75.003
0.094248	75.036	75.036
0.094248	75.151	75.151
0.094248	75.404	75.404
0.094248	75.709	75.709
0.094248	76.326	76.326
0.094248	77.351	77.351
0.094248	78.482	78.482
0.094248	80.531	80.531
0.094248	81.414	81.414
0.094248	83.556	83.556
0.094248	84.939	84.939
0.094248	87.361	87.361
0.094248	90.210	90.210
0.094248	91.106	91.106
0.094248	94.317	94.317
0.094248	96.870	96.870
0.094248	98.620	98.620
0.094248	101.54	101.54
0.094248	105.25	105.25
0.12566	9.5243	9.5243
0.12566	11.885	11.885
0.12566	18.963	18.963
0.12566	21.290	21.290
0.12566	24.196	24.196
0.12566	24.208	24.208
0.12566	24.268	24.268
0.12566	24.429	24.429
0.12566	24.639	24.639
0.12566	25.126	25.126
0.12566	26.089	26.089
0.12566	26.966	26.966
0.12566	28.272	28.272
0.12566	30.009	30.009
0.12566	31.377	31.377
0.12566	33.852	33.852
0.12566	35.864	35.864
0.12566	39.188	39.188
0.12566	42.101	42.101
0.12566	44.128	44.128
0.12566	46.321	46.321
0.12566	49.618	49.618
0.12566	52.377	52.377
0.12566	56.025	56.025
0.12566	59.273	59.273
0.12566	62.130	62.130
0.12566	65.694	65.694
0.12566	68.164	68.164
0.12566	71.715	71.715
0.12566	75.164	75.164
0.12566	78.245	78.245
0.12566	82.400	82.400
0.12566	85.025	85.025
0.12566	89.362	89.362
0.12566	91.996	91.996
0.12566	95.878	95.878
0.12566	99.090	99.090
0.12566	100.00	100.00
0.12566	100.03	100.03
0.12566	100.13	100.13
0.12566	100.38	100.38
0.12566	100.85	100.85
0.12566	101.39	101.39
0.12566	102.38	102.38
0.12566	103.53	103.53
0.12566	105.00	105.00
0.12566	106.76	106.76
0.12566	107.74	107.74
0.12566	110.39	110.39
0.12566	111.68	111.68
0.15708	10.368	10.368
0.15708	12.970	12.970
0.15708	19.793	19.793
0.15708	25.287	25.287
0.15708	28.091	28.091
0.15708	30.244	30.244
0.15708	30.256	30.256
0.15708	30.303	30.303
0.15708	30.432	30.432
0.15708	30.600	30.600
0.15708	30.993	30.993
0.15708	31.849	31.849
0.15708	33.253	33.253
0.15708	34.629	34.629
0.15708	35.322	35.322
0.15708	36.469	36.469
0.15708	39.324	39.324
0.15708	42.065	42.065
0.15708	44.286	44.286
0.15708	47.540	47.540
0.15708	49.544	49.544
0.15708	51.456	51.456
0.15708	54.618	54.618
0.15708	58.105	58.105
0.15708	60.973	60.973
0.15708	64.760	64.760
0.15708	67.676	67.676
0.15708	70.695	70.695
0.15708	74.036	74.036
0.15708	76.556	76.556
0.15708	80.373	80.373
0.15708	83.578	83.578
0.15708	87.101	87.101
0.15708	90.961	90.961
0.15708	93.988	93.988
0.15708	98.289	98.289
0.15708	100.94	100.94
0.15708	105.30	105.30
0.15708	108.06	108.06
0.15708	112.00	112.00
0.15708	115.42	115.42
0.15708	118.72	118.72
0.15708	122.83	122.83
0.15708	125.00	125.00
0.15708	125.04	125.04
0.15708	125.08	125.08
0.15708	125.19	125.19
0.15708	125.37	125.37
0.15708	125.84	125.84
0.15708	126.55	126.55
0.18850	11.127	11.127
0.18850	14.233	14.233
0.18850	20.393	20.393
0.18850	27.255	27.255
0.18850	31.312	31.312
0.18850	35.619	35.619
0.18850	36.293	36.293
0.18850	36.305	36.305
0.18850	36.344	36.344
0.18850	36.451	36.451
0.18850	36.593	36.593
0.18850	36.920	36.920
0.18850	37.639	37.639
0.18850	38.873	38.873
0.18850	40.384	40.384
0.18850	41.272	41.272
0.18850	42.762	42.762
0.18850	44.511	44.511
0.18850	47.837	47.837
0.18850	50.405	50.405
0.18850	52.549	52.549
0.18850	54.535	54.535
0.18850	57.314	57.314
0.18850	59.822	59.822
0.18850	63.438	63.438
0.18850	66.678	66.678
0.18850	69.724	69.724
0.18850	73.382	73.382
0.18850	76.023	76.023
0.18850	78.999	78.999
0.18850	82.306	82.306
0.18850	85.017	85.017
0.18850	89.051	89.051
0.18850	92.088	92.088
0.18850	95.979	95.979
0.18850	99.506	99.506
0.18850	102.94	102.94
0.18850	106.98	106.98
0.18850	109.92	109.92
0.18850	114.27	114.27
0.18850	116.93	116.93
0.18850	121.19	121.19
0.18850	124.18	124.18
0.18850	127.95	127.95
0.18850	131.70	131.70
0.18850	134.90	134.90
0.18850	139.31	139.31
0.18850	142.10	142.10
0.18850	146.78	146.78
0.18850	149.36	149.36
0.21991	11.928	11.928
0.21991	15.524	15.524
0.21991	21.056	21.056
0.21991	28.004	28.004
0.21991	34.574	34.574
0.21991	37.519	37.519
0.21991	42.341	42.341
0.21991	42.354	42.354
0.21991	42.387	42.387
0.21991	42.473	42.473
0.21991	42.591	42.591
0.21991	42.834	42.834
0.21991	43.237	43.237
0.21991	43.633	43.633
0.21991	44.612	44.612
0.21991	45.942	45.942
0.21991	46.767	46.767
0.21991	49.017	49.017
0.21991	50.888	50.888
0.21991	53.002	53.002
0.21991	56.361	56.361
0.21991	58.278	58.278
0.21991	59.581	59.581
0.21991	62.592	62.592
0.21991	65.905	65.905
0.21991	68.548	68.548
0.21991	72.336	72.336
0.21991	75.262	75.262
0.21991	78.470	78.470
0.21991	81.747	81.747
0.21991	84.160	84.160
0.21991	87.268	87.268
0.21991	90.722	90.722
0.21991	93.689	93.689
0.21991	97.806	97.806
0.21991	100.76	100.76
0.21991	104.90	104.90
0.21991	108.14	108.14
0.21991	111.94	111.94
0.21991	115.65	115.65
0.21991	118.92	118.92
0.21991	123.09	123.09
0.21991	125.87	125.87
0.21991	130.19	130.19
0.21991	132.98	132.98
0.21991	136.98	136.98
0.21991	140.45	140.45
0.21991	143.89	143.89
0.21991	148.12	148.12
0.21991	151.10	151.10
0.25133	12.789	12.789
0.25133	16.794	16.794
0.25133	21.821	21.821
0.25133	28.634	28.634
0.25133	35.771	35.771
0.25133	41.069	41.069
0.25133	44.583	44.583
0.25133	48.390	48.390
0.25133	48.404	48.404
0.25133	48.436	48.436
0.25133	48.510	48.510
0.25133	48.616	48.616
0.25133	48.843	48.843
0.25133	49.351	49.351
0.25133	50.227	50.227
0.25133	51.176	51.176
0.25133	51.713	51.713
0.25133	52.397	52.397
0.25133	54.475	54.475
0.25133	57.339	57.339
0.25133	59.134	59.134
0.25133	61.516	61.516
0.25133	63.579	63.579
0.25133	65.846	65.846
0.25133	67.862	67.862
0.25133	71.503	71.503
0.25133	74.546	74.546
0.25133	77.454	77.454
0.25133	81.172	81.172
0.25133	83.816	83.816
0.25133	86.869	86.869
0.25133	89.817	89.817
0.25133	92.366	92.366
0.25133	95.898	95.898
0.25133	99.326	99.326
0.25133	102.57	102.57
0.25133	106.61	106.61
0.25133	109.60	109.60
0.25133	113.85	113.85
0.25133	116.91	116.91
0.25133	120.97	120.97
0.25133	124.40	124.40
0.25133	127.96	127.96
0.25133	131.89	131.89
0.25133	134.83	134.83
0.25133	139.09	139.09
0.25133	141.82	141.82
0.25133	145.92	145.92
0.25133	149.25	149.25
0.25133	152.83	152.83
0.28274	13.696	13.696
0.28274	18.033	18.033
0.28274	22.690	22.690
0.28274	29.285	29.285
0.28274	36.441	36.441
0.28274	43.326	43.326
0.28274	47.286	47.286
0.28274	52.212	52.212
0.28274	54.438	54.438
0.28274	54.453	54.453
0.28274	54.487	54.487
0.28274	54.551	54.551
0.28274	54.646	54.646
0.28274	54.847	54.847
0.28274	55.302	55.302
0.28274	56.113	56.113
0.28274	57.227	57.227
0.28274	57.856	57.856
0.28274	59.134	59.134
0.28274	60.174	60.174
0.28274	62.782	62.782
0.28274	65.790	65.790
0.28274	67.329	67.329
0.28274	68.641	68.641
0.28274	71.311	71.311
0.28274	74.381	74.381
0.28274	76.665	76.665
0.28274	80.517	80.517
0.28274	83.211	83.211
0.28274	86.385	86.385
0.28274	89.773	89.773
0.28274	92.080	92.080
0.28274	94.892	94.892
0.28274	98.169	98.169
0.28274	100.97	100.97
0.28274	104.82	104.82
0.28274	108.07	108.07
0.28274	111.62	111.62
0.28274	115.46	115.46
0.28274	118.61	118.61
0.28274	122.82	122.82
0.28274	125.82	125.82
0.28274	130.02	130.02
0.28274	133.24	133.24
0.28274	137.00	137.00
0.28274	140.72	140.72
0.28274	143.78	143.78
0.28274	147.93	147.93
0.28274	150.67	150.67
0.28274	154.80	154.80
0.31416	14.629	14.629
0.31416	19.247	19.247
0.31416	23.651	23.651
0.31416	29.988	29.988
0.31416	37.054	37.054
0.31416	44.228	44.228
0.31416	50.469	50.469
0.31416	53.861	53.861
0.31416	60.028	60.028
0.31416	60.486	60.486
0.31416	60.501	60.501
0.31416	60.540	60.540
0.31416	60.598	60.598
0.31416	60.683	60.683
0.31416	60.866	60.866
0.31416	61.277	61.277
0.31416	62.011	62.011
0.31416	63.033	63.033
0.31416	63.623	63.623
0.31416	65.258	65.258
0.31416	67.184	67.184
0.31416	68.411	68.411
0.31416	71.243	71.243
0.31416	73.330	73.330
0.31416	74.870	74.870
0.31416	76.597	76.597
0.31416	80.212	80.212
0.31416	83.003	83.003
0.31416	85.669	85.669
0.31416	89.465	89.465
0.31416	91.889	91.889
0.31416	95.024	95.024
0.31416	97.907	97.907
0.31416	100.16	100.16
0.31416	103.40	103.40
0.31416	106.91	106.91
0.31416	109.88	109.88
0.31416	113.87	113.87
0.31416	116.96	116.96
0.31416	120.77	120.77
0.31416	124.37	124.37
0.31416	127.74	127.74
0.31416	131.82	131.82
0.31416	134.86	134.86
0.31416	139.09	139.09
0.31416	142.18	142.18
0.31416	146.03	146.03
0.31416	149.58	149.58
0.31416	152.68	152.68
0.31416	156.75	156.75
0.34558	15.573	15.573
0.34558	20.444	20.444
0.34558	24.688	24.688
0.34558	30.752	30.752
0.34558	37.683	37.683
0.34558	44.879	44.879
0.34558	51.972	51.972
0.34558	57.008	57.008
0.34558	61.165	61.165
0.34558	66.535	66.535
0.34558	66.549	66.549
0.34558	66.590	66.590
0.34558	66.649	66.649
0.34558	66.719	66.719
0.34558	66.873	66.873
0.34558	67.217	67.217
0.34558	67.753	67.753
0.34558	68.149	68.149
0.34558	68.906	68.906
0.34558	69.438	69.438
0.34558	70.961	70.961
0.34558	73.294	73.294
0.34558	75.401	75.401
0.34558	76.765	76.765
0.34558	78.590	78.590
0.34558	80.769	80.769
0.34558	83.275	83.275
0.34558	85.436	85.436
0.34558	89.242	89.242
0.34558	91.673	91.673
0.34558	94.719	94.719
0.34558	98.220	98.220
0.34558	100.36	100.36
0.34558	103.02	103.02
0.34558	106.18	106.18
0.34558	108.75	108.75
0.34558	112.40	112.40
0.34558	115.81	115.81
0.34558	118.98	118.98
0.34558	122.97	122.97
0.34558	126.00	126.00
0.34558	129.99	129.99
0.34558	133.37	133.37
0.34558	136.95	136.95
0.34558	140.86	140.86
0.34558	143.98	143.98
0.34558	148.16	148.16
0.34558	151.16	151.16
0.34558	155.00	155.00
0.34558	158.45	158.45
0.37699	16.518	16.518
0.37699	21.633	21.633
0.37699	25.785	25.785
0.37699	31.578	31.578
0.37699	38.351	38.351
0.37699	45.494	45.494
0.37699	52.746	52.746
0.37699	59.485	59.485
0.37699	63.453	63.453
0.37699	68.931	68.931
0.37699	72.583	72.583
0.37699	72.597	72.597
0.37699	72.639	72.639
0.37699	72.707	72.707
0.37699	72.767	72.767
0.37699	72.907	72.907
0.37699	73.231	73.231
0.37699	73.821	73.821
0.37699	74.679	74.679
0.37699	75.185	75.185
0.37699	76.014	76.014
0.37699	76.842	76.842
0.37699	78.923	78.923
0.37699	81.573	81.573
0.37699	83.451	83.451
0.37699	84.216	84.216
0.37699	86.106	86.106
0.37699	89.534	89.534
0.37699	91.853	91.853
0.37699	94.476	94.476
0.37699	98.234	98.234
0.37699	100.41	100.41
0.37699	103.54	103.54
0.37699	106.47	106.47
0.37699	108.46	108.46
0.37699	111.39	111.39
0.37699	115.01	115.01
0.37699	117.69	117.69
0.37699	121.59	121.59
0.37699	124.82	124.82
0.37699	128.23	128.23
0.37699	132.12	132.12
0.37699	135.16	135.16
0.37699	139.24	139.24
0.37699	142.46	142.46
0.37699	146.21	146.21
0.37699	149.95	149.95
0.37699	153.13	153.13
0.37699	157.20	157.20
0.37699	160.14	160.14
0.40841	17.456	17.456
0.40841	22.818	22.818
0.40841	26.927	26.927
0.40841	32.466	32.466
0.40841	39.063	39.063
0.40841	46.122	46.122
0.40841	53.383	53.383
0.40841	60.593	60.593
0.40841	66.520	66.520
0.40841	70.380	70.380
0.40841	76.905	76.905
0.40841	78.632	78.632
0.40841	78.645	78.645
0.40841	78.687	78.687
0.40841	78.765	78.765
0.40841	78.823	78.823
0.40841	78.944	78.944
0.40841	79.241	79.241
0.40841	79.789	79.789
0.40841	80.600	80.600
0.40841	81.089	81.089
0.40841	82.291	82.291
0.40841	83.972	83.972
0.40841	84.890	84.890
0.40841	87.136	87.136
0.40841	89.096	89.096
0.40841	90.776	90.776
0.40841	92.411	92.411
0.40841	94.875	94.875
0.40841	98.483	98.483
0.40841	100.54	100.54
0.40841	103.56	103.56
0.40841	107.07	107.07
0.40841	109.03	109.03
0.40841	111.61	111.61
0.40841	114.66	114.66
0.40841	117.05	117.05
0.40841	120.42	120.42
0.40841	124.05	124.05
0.40841	126.84	126.84
0.40841	130.87	130.87
0.40841	133.93	133.93
0.40841	137.56	137.56
0.40841	141.30	141.30
0.40841	144.43	144.43
0.40841	148.52	148.52
0.40841	151.64	151.64
0.40841	155.47	155.47
0.40841	159.06	159.06
0.40841	162.25	162.25
0.43982	18.384	18.384
0.43982	24.002	24.002
0.43982	28.103	28.103
0.43982	33.410	33.410
0.43982	39.824	39.824
0.43982	46.777	46.777
0.43982	53.999	53.999
0.43982	61.313	61.313
0.43982	68.341	68.341
0.43982	73.135	73.135
0.43982	77.950	77.950
0.43982	84.680	84.680
0.43982	84.692	84.692
0.43982	84.730	84.730
0.43982	84.807	84.807
0.43982	84.880	84.880
0.43982	84.922	84.922
0.43982	85.028	85.028
0.43982	85.286	85.286
0.43982	85.786	85.786
0.43982	86.537	86.537
0.43982	87.002	87.002
0.43982	88.134	88.134
0.43982	90.018	90.018
0.43982	92.115	92.115
0.43982	93.139	93.139
0.43982	94.597	94.597
0.43982	96.315	96.315
0.43982	99.331	99.331
0.43982	101.01	101.01
0.43982	103.87	103.87
0.43982	107.43	107.43
0.43982	109.34	109.34
0.43982	112.48	112.48
0.43982	115.44	115.44
0.43982	117.24	117.24
0.43982	119.85	119.85
0.43982	123.55	123.55
0.43982	126.02	126.02
0.43982	129.70	129.70
0.43982	133.18	133.18
0.43982	136.13	136.13
0.43982	140.19	140.19
0.43982	143.14	143.14
0.43982	146.95	146.95
0.43982	150.53	150.53
0.43982	153.76	153.76
0.43982	157.81	157.81
0.43982	160.85	160.85
0.43982	164.69	164.69
0.47124	19.302	19.302
0.47124	25.183	25.183
0.47124	29.305	29.305
0.47124	34.407	34.407
0.47124	40.632	40.632
0.47124	47.466	47.466
0.47124	54.625	54.625
0.47124	61.948	61.948
0.47124	69.263	69.263
0.47124	75.786	75.786
0.47124	79.872	79.872
0.47124	85.909	85.909
0.47124	90.729	90.729
0.47124	90.740	90.740
0.47124	90.780	90.780
0.47124	90.867	90.867
0.47124	90.966	90.966
0.47124	91.029	91.029
0.47124	91.270	91.270
0.47124	91.722	91.722
0.47124	92.405	92.405
0.47124	92.858	92.858
0.47124	93.273	93.273
0.47124	94.068	94.068
0.47124	95.794	95.794
0.47124	98.035	98.035
0.47124	99.920	99.920
0.47124	100.90	100.90
0.47124	102.03	102.03
0.47124	104.90	104.90
0.47124	108.13	108.13
0.47124	109.76	109.76
0.47124	112.91	112.91
0.47124	116.30	116.30
0.47124	118.08	118.08
0.47124	120.65	120.65
0.47124	123.55	123.55
0.47124	125.86	125.86
0.47124	128.86	128.86
0.47124	132.70	132.70
0.47124	135.19	135.19
0.47124	139.08	139.08
0.47124	142.38	142.38
0.47124	145.51	145.51
0.47124	149.54	149.54
0.47124	152.43	152.43
0.47124	156.36	156.36
0.47124	159.80	159.80
0.47124	163.11	163.11
0.47124	167.07	167.07
0.50265	20.208	20.208
0.50265	26.360	26.360
0.50265	30.527	30.527
0.50265	35.452	35.452
0.50265	41.487	41.487
0.50265	48.193	48.193
0.50265	55.274	55.274
0.50265	62.568	62.568
0.50265	69.957	69.957
0.50265	77.174	77.174
0.50265	82.758	82.758
0.50265	87.188	87.188
0.50265	94.080	94.080
0.50265	96.777	96.777
0.50265	96.788	96.788
0.50265	96.826	96.826
0.50265	96.915	96.915
0.50265	97.045	97.045
0.50265	97.086	97.086
0.50265	97.306	97.306
0.50265	97.730	97.730
0.50265	98.394	98.394
0.50265	98.855	98.855
0.50265	99.749	99.749
0.50265	101.19	101.19
0.50265	101.98	101.98
0.50265	103.76	103.76
0.50265	105.57	105.57
0.50265	106.98	106.98
0.50265	109.28	109.28
0.50265	110.62	110.62
0.50265	113.76	113.76
0.50265	116.99	116.99
0.50265	118.63	118.63
0.50265	121.84	121.84
0.50265	124.79	124.79
0.50265	126.40	126.40
0.50265	128.76	128.76
0.50265	132.42	132.42
0.50265	134.86	134.86
0.50265	138.17	138.17
0.50265	141.95	141.95
0.50265	144.48	144.48
0.50265	148.51	148.51
0.50265	151.65	151.65
0.50265	154.96	154.96
0.50265	158.91	158.91
0.50265	161.79	161.79
0.50265	165.77	165.77
0.50265	168.00	168.00
0.53407	21.104	21.104
0.53407	27.532	27.532
0.53407	31.763	31.763
0.53407	36.539	36.539
0.53407	42.387	42.387
0.53407	48.957	48.957
0.53407	55.950	55.950
0.53407	63.197	63.197
0.53407	70.593	70.593
0.53407	78.006	78.006
0.53407	84.916	84.916
0.53407	89.532	89.532
0.53407	95.064	95.064
0.53407	102.37	102.37
0.53407	102.83	102.83
0.53407	102.84	102.84
0.53407	102.87	102.87
0.53407	102.96	102.96
0.53407	103.11	103.11
0.53407	103.17	103.17
0.53407	103.35	103.35
0.53407	103.75	103.75
0.53407	104.37	104.37
0.53407	104.83	104.83
0.53407	105.67	105.67
0.53407	107.22	107.22
0.53407	109.14	109.14
0.53407	110.31	110.31
0.53407	111.28	111.28
0.53407	112.62	112.62
0.53407	115.35	115.35
0.53407	117.95	117.95
0.53407	119.42	119.42
0.53407	122.71	122.71
0.53407	125.85	125.85
0.53407	127.47	127.47
0.53407	130.12	130.12
0.53407	132.82	132.82
0.53407	135.05	135.05
0.53407	137.72	137.72
0.53407	141.64	141.64
0.53407	144.04	144.04
0.53407	147.58	147.58
0.53407	151.25	151.25
0.53407	153.87	153.87
0.53407	157.97	157.97
0.53407	160.98	160.98
0.53407	164.43	164.43
0.53407	167.30	167.30
0.53407	168.30	168.30
0.56549	21.990	21.990
0.56549	28.696	28.696
0.56549	33.010	33.010
0.56549	37.665	37.665
0.56549	43.331	43.331
0.56549	49.760	49.760
0.56549	56.656	56.656
0.56549	63.844	63.844
0.56549	71.219	71.219
0.56549	78.690	78.690
0.56549	86.059	86.059
0.56549	92.271	92.271
0.56549	96.660	96.660
0.56549	103.27	103.27
0.56549	108.87	108.87
0.56549	108.88	108.88
0.56549	108.92	108.92
0.56549	109.00	109.00
0.56549	109.16	109.16
0.56549	109.26	109.26
0.56549	109.38	109.38
0.56549	109.73	109.73
0.56549	110.28	110.28
0.56549	110.71	110.71
0.56549	110.95	110.95
0.56549	111.65	111.65
0.56549	113.09	113.09
0.56549	115.00	115.00
0.56549	116.78	116.78
0.56549	117.89	117.89
0.56549	119.06	119.06
0.56549	120.97	120.97
0.56549	124.05	124.05
0.56549	126.76	126.76
0.56549	128.33	128.33
0.56549	131.60	131.60
0.56549	134.46	134.46
0.56549	135.90	135.90
0.56549	138.10	138.10
0.56549	141.63	141.63
0.56549	144.11	144.11
0.56549	147.00	147.00
0.56549	150.96	150.96
0.56549	153.33	153.33
0.56549	157.05	157.05
0.56549	160.59	160.59
0.56549	163.32	163.32
0.56549	166.57	166.57
0.56549	167.44	167.44
0.56549	170.35	170.35
0.59690	22.866	22.866
0.59690	29.851	29.851
0.59690	34.264	34.264
0.59690	38.823	38.823
0.59690	44.316	44.316
0.59690	50.601	50.601
0.59690	57.394	57.394
0.59690	64.513	64.513
0.59690	71.852	71.852
0.59690	79.331	79.331
0.59690	86.847	86.847
0.59690	94.025	94.025
0.59690	99.252	99.252
0.59690	104.41	104.41
0.59690	111.69	111.69
0.59690	114.92	114.92
0.59690	114.93	114.93
0.59690	114.97	114.97
0.59690	115.05	115.05
0.59690	115.21	115.21
0.59690	115.37	115.37
0.59690	115.44	115.44
0.59690	115.77	115.77
0.59690	116.32	116.32
0.59690	116.80	116.80
0.59690	117.46	117.46
0.59690	118.73	118.73
0.59690	119.59	119.59
0.59690	120.85	120.85
0.59690	122.54	122.54
0.59690	123.69	123.69
0.59690	126.07	126.07
0.59690	127.77	127.77
0.59690	129.65	129.65
0.59690	132.88	132.88
0.59690	135.64	135.64
0.59690	137.20	137.20
0.59690	139.96	139.96
0.59690	142.47	142.47
0.59690	144.55	144.55
0.59690	146.96	146.96
0.59690	150.83	150.83
0.59690	153.31	153.31
0.59690	156.40	156.40
0.59690	160.34	160.34
0.59690	162.70	162.70
0.59690	165.81	165.81
0.59690	166.55	166.55
0.59690	169.97	169.97
0.59690	172.80	172.80
0.62832	23.734	23.734
0.62832	30.997	30.997
0.62832	35.522	35.522
0.62832	40.011	40.011
0.62832	45.339	45.339
0.62832	51.478	51.478
0.62832	58.163	58.163
0.62832	65.207	65.207
0.62832	72.499	72.499
0.62832	79.964	79.964
0.62832	87.529	87.529
0.62832	95.037	95.037
0.62832	101.71	101.71
0.62832	106.33	106.33
0.62832	112.63	112.63
0.62832	120.24	120.24
0.62832	120.97	120.97
0.62832	120.98	120.98
0.62832	121.01	121.01
0.62832	121.10	121.10
0.62832	121.26	121.26
0.62832	121.48	121.48
0.62832	121.51	121.51
0.62832	121.81	121.81
0.62832	122.33	122.33
0.62832	122.81	122.81
0.62832	123.43	123.43
0.62832	124.72	124.72
0.62832	126.42	126.42
0.62832	127.96	127.96
0.62832	128.55	128.55
0.62832	129.50	129.50
0.62832	131.79	131.79
0.62832	134.64	134.64
0.62832	136.62	136.62
0.62832	138.46	138.46
0.62832	141.70	141.70
0.62832	144.39	144.39
0.62832	145.68	145.68
0.62832	147.83	147.83
0.62832	151.15	151.15
0.62832	153.64	153.64
0.62832	156.20	156.20
0.62832	160.17	160.17
0.62832	162.60	162.60
0.62832	165.03	165.03
0.62832	165.86	165.86
0.62832	169.74	169.74
0.62832	172.12	172.12
0.62832	176.06	176.06
0.65973	24.595	24.595
0.65973	32.133	32.133
0.65973	36.781	36.781
0.65973	41.223	41.223
0.65973	46.399	46.399
0.65973	52.392	52.392
0.65973	58.964	58.964
0.65973	65.928	65.928
0.65973	73.165	73.165
0.65973	80.602	80.602
0.65973	88.177	88.177
0.65973	95.802	95.802
0.65973	103.19	103.19
0.65973	108.98	108.98
0.65973	113.95	113.95
0.65973	121.13	121.13
0.65973	127.02	127.02
0.65973	127.03	127.03
0.65973	127.06	127.06
0.65973	127.14	127.14
0.65973	127.29	127.29
0.65973	127.53	127.53
0.65973	127.62	127.62
0.65973	127.84	127.84
0.65973	128.29	128.29
0.65973	128.75	128.75
0.65973	128.99	128.99
0.65973	129.47	129.47
0.65973	130.65	130.65
0.65973	132.30	132.30
0.65973	133.98	133.98
0.65973	134.99	134.99
0.65973	136.80	136.80
0.65973	137.83	137.83
0.65973	140.30	140.30
0.65973	143.34	143.34
0.65973	145.57	145.57
0.65973	147.27	147.27
0.65973	150.10	150.10
0.65973	152.44	152.44
0.65973	154.29	154.29
0.65973	156.55	156.55
0.65973	160.30	160.30
0.65973	162.87	162.87
0.65973	164.23	164.23
0.65973	165.56	165.56
0.65973	169.57	169.57
0.65973	171.96	171.96
0.65973	175.35	175.35
0.65973	179.19	179.19
0.69115	25.448	25.448
0.69115	33.259	33.259
0.69115	38.038	38.038
0.69115	42.456	42.456
0.69115	47.493	47.493
0.69115	53.340	53.340
0.69115	59.797	59.797
0.69115	66.675	66.675
0.69115	73.853	73.853
0.69115	81.252	81.252
0.69115	88.817	88.817
0.69115	96.487	96.487
0.69115	104.13	104.13
0.69115	111.15	111.15
0.69115	116.12	116.12
0.69115	122.15	122.15
0.69115	129.82	129.82
0.69115	133.07	133.07
0.69115	133.08	133.08
0.69115	133.11	133.11
0.69115	133.19	133.19
0.69115	133.34	133.34
0.69115	133.58	133.58
0.69115	133.75	133.75
0.69115	133.90	133.90
0.69115	134.34	134.34
0.69115	134.85	134.85
0.69115	135.33	135.33
0.69115	136.44	136.44
0.69115	137.66	137.66
0.69115	138.37	138.37
0.69115	139.82	139.82
0.69115	140.81	140.81
0.69115	142.88	142.88
0.69115	145.37	145.37
0.69115	146.63	146.63
0.69115	148.96	148.96
0.69115	152.08	152.08
0.69115	154.47	154.47
0.69115	155.74	155.74
0.69115	157.89	157.89
0.69115	160.98	160.98
0.69115	163.39	163.39
0.69115	163.41	163.41
0.69115	165.72	165.72
0.69115	169.60	169.60
0.69115	172.17	172.17
0.69115	174.98	174.98
0.69115	179.01	179.01
0.69115	181.39	181.39
0.72257	26.294	26.294
0.72257	34.375	34.375
0.72257	39.291	39.291
0.72257	43.707	43.707
0.72257	48.619	48.619
0.72257	54.322	54.322
0.72257	60.661	60.661
0.72257	67.450	67.450
0.72257	74.562	74.562
0.72257	81.918	81.918
0.72257	89.462	89.462
0.72257	97.143	97.143
0.72257	104.89	104.89
0.72257	112.45	112.45
0.72257	118.71	118.71
0.72257	123.68	123.68
0.72257	130.72	130.72
0.72257	138.62	138.62
0.72257	139.12	139.12
0.72257	139.13	139.13
0.72257	139.16	139.16
0.72257	139.23	139.23
0.72257	139.39	139.39
0.72257	139.64	139.64
0.72257	139.89	139.89
0.72257	139.97	139.97
0.72257	140.38	140.38
0.72257	140.89	140.89
0.72257	141.34	141.34
0.72257	142.41	142.41
0.72257	143.90	143.90
0.72257	145.50	145.50
0.72257	146.39	146.39
0.72257	147.12	147.12
0.72257	148.68	148.68
0.72257	151.23	151.23
0.72257	154.00	154.00
0.72257	155.61	155.61
0.72257	157.67	157.67
0.72257	160.50	160.50
0.72257	162.56	162.56
0.72257	162.68	162.68
0.72257	164.21	164.21
0.72257	166.45	166.45
0.72257	170.04	170.04
0.72257	172.63	172.63
0.72257	175.02	175.02
0.72257	178.97	178.97
0.72257	181.56	181.56
0.72257	184.45	184.45
0.75398	27.135	27.135
0.75398	35.482	35.482
0.75398	40.538	40.538
0.75398	44.971	44.971
0.75398	49.773	49.773
0.75398	55.336	55.336
0.75398	61.556	61.556
0.75398	68.252	68.252
0.75398	75.295	75.295
0.75398	82.602	82.602
0.75398	90.116	90.116
0.75398	97.791	97.791
0.75398	105.57	105.57
0.75398	113.35	113.35
0.75398	120.64	120.64
0.75398	126.01	126.01
0.75398	131.85	131.85
0.75398	139.52	139.52
0.75398	145.17	145.17
0.75398	145.17	145.17
0.75398	145.20	145.20
0.75398	145.28	145.28
0.75398	145.42	145.42
0.75398	145.67	145.67
0.75398	146.00	146.00
0.75398	146.05	146.05
0.75398	146.40	146.40
0.75398	146.89	146.89
0.75398	147.26	147.26
0.75398	147.66	147.66
0.75398	148.42	148.42
0.75398	149.82	149.82
0.75398	151.40	151.40
0.75398	152.36	152.36
0.75398	154.13	154.13
0.75398	155.91	155.91
0.75398	157.09	157.09
0.75398	159.74	159.74
0.75398	161.70	161.70
0.75398	162.67	162.67
0.75398	164.61	164.61
0.75398	166.10	166.10
0.75398	168.24	168.24
0.75398	171.08	171.08
0.75398	173.30	173.30
0.75398	175.51	175.51
0.75398	179.27	179.27
0.75398	181.97	181.97
0.75398	184.40	184.40
0.75398	188.41	188.41
0.78540	27.970	27.970
0.78540	36.580	36.580
0.78540	41.779	41.779
0.78540	46.245	46.245
0.78540	50.955	50.955
0.78540	56.381	56.381
0.78540	62.480	62.480
0.78540	69.081	69.081
0.78540	76.051	76.051
0.78540	83.304	83.304
0.78540	90.783	90.783
0.78540	98.442	98.442
0.78540	106.24	106.24
0.78540	114.10	114.10
0.78540	121.83	121.83
0.78540	128.47	128.47
0.78540	133.55	133.55
0.78540	140.46	140.46
0.78540	148.46	148.46
0.78540	151.22	151.22
0.78540	151.22	151.22
0.78540	151.25	151.25
0.78540	151.32	151.32
0.78540	151.47	151.47
0.78540	151.71	151.71
0.78540	152.07	152.07
0.78540	152.21	152.21
0.78540	152.47	152.47
0.78540	152.96	152.96
0.78540	153.37	153.37
0.78540	154.25	154.25
0.78540	155.57	155.57
0.78540	156.66	156.66
0.78540	157.39	157.39
0.78540	158.26	158.26
0.78540	159.96	159.96
0.78540	160.82	160.82
0.78540	162.33	162.33
0.78540	164.70	164.70
0.78540	165.84	165.84
0.78540	168.33	168.33
0.78540	171.10	171.10
0.78540	173.12	173.12
0.78540	174.31	174.31
0.78540	176.61	176.61
0.78540	180.04	180.04
0.78540	182.58	182.58
0.78540	184.76	184.76
0.78540	188.61	188.61
0.78540	190.10	190.10
0.81681	28.800	28.800
0.81681	37.670	37.670
0.81681	43.013	43.013
0.81681	47.526	47.526
0.81681	52.161	52.161
0.81681	57.455	57.455
0.81681	63.434	63.434
0.81681	69.937	69.937
0.81681	76.831	76.831
0.81681	84.027	84.027
0.81681	91.464	91.464
0.81681	99.100	99.100
0.81681	106.90	106.90
0.81681	114.80	114.80
0.81681	122.71	122.71
0.81681	130.21	130.21
0.81681	135.95	135.95
0.81681	141.69	141.69
0.81681	149.33	149.33
0.81681	157.26	157.26
0.81681	157.27	157.27
0.81681	157.30	157.30
0.81681	157.35	157.35
0.81681	157.42	157.42
0.81681	157.54	157.54
0.81681	157.77	157.77
0.81681	158.13	158.13
0.81681	158.37	158.37
0.81681	158.55	158.55
0.81681	159.02	159.02
0.81681	159.42	159.42
0.81681	159.93	159.93
0.81681	160.24	160.24
0.81681	161.54	161.54
0.81681	163.06	163.06
0.81681	164.04	164.04
0.81681	165.37	165.37
0.81681	166.25	166.25
0.81681	168.12	168.12
0.81681	170.72	170.72
0.81681	173.40	173.40
0.81681	174.80	174.80
0.81681	176.72	176.72
0.81681	178.85	178.85
0.81681	181.42	181.42
0.81681	183.38	183.38
0.81681	185.57	185.57
0.81681	189.18	189.18
0.81681	189.20	189.20
0.81681	192.06	192.06
0.84823	29.625	29.625
0.84823	38.752	38.752
0.84823	44.238	44.238
0.84823	48.812	48.812
0.84823	53.389	53.389
0.84823	58.558	58.558
0.84823	64.416	64.416
0.84823	70.819	70.819
0.84823	77.634	77.634
0.84823	84.769	84.769
0.84823	92.162	92.162
0.84823	99.769	99.769
0.84823	107.55	107.55
0.84823	115.47	115.47
0.84823	123.47	123.47
0.84823	131.34	131.34
0.84823	138.28	138.28
0.84823	143.53	143.53
0.84823	150.32	150.32
0.84823	158.34	158.34
0.84823	159.02	159.02
0.84823	163.31	163.31
0.84823	163.32	163.32
0.84823	163.35	163.35
0.84823	163.42	163.42
0.84823	163.55	163.55
0.84823	163.79	163.79
0.84823	164.15	164.15
0.84823	164.55	164.55
0.84823	164.60	164.60
0.84823	165.06	165.06
0.84823	165.46	165.46
0.84823	166.10	166.10
0.84823	166.67	166.67
0.84823	167.54	167.54
0.84823	168.98	168.98
0.84823	169.97	169.97
0.84823	171.41	171.41
0.84823	173.56	173.56
0.84823	175.16	175.16
0.84823	176.54	176.54
0.84823	179.19	179.19
0.84823	181.87	181.87
0.84823	183.64	183.64
0.84823	184.68	184.68
0.84823	187.02	187.02
0.84823	188.25	188.25
0.84823	190.29	190.29
0.84823	192.81	192.81
0.84823	194.78	194.78
0.87965	30.446	30.446
0.87965	39.826	39.826
0.87965	45.456	45.456
0.87965	50.099	50.099
0.87965	54.636	54.636
0.87965	59.689	59.689
0.87965	65.425	65.425
0.87965	71.727	71.727
0.87965	78.461	78.461
0.87965	85.532	85.532
0.87965	92.877	92.877
0.87965	100.45	100.45
0.87965	108.21	108.21
0.87965	116.14	116.14
0.87965	124.17	124.17
0.87965	132.21	132.21
0.87965	139.89	139.89
0.87965	145.95	145.95
0.87965	151.64	151.64
0.87965	158.10	158.10
0.87965	159.22	159.22
0.87965	167.42	167.42
0.87965	169.36	169.36
0.87965	169.37	169.37
0.87965	169.40	169.40
0.87965	169.46	169.46
0.87965	169.60	169.60
0.87965	169.83	169.83
0.87965	170.20	170.20
0.87965	170.67	170.67
0.87965	170.74	170.74
0.87965	171.15	171.15
0.87965	171.54	171.54
0.87965	172.18	172.18
0.87965	173.34	173.34
0.87965	174.73	174.73
0.87965	175.66	175.66
0.87965	176.11	176.11
0.87965	177.32	177.32
0.87965	179.41	179.41
0.87965	181.85	181.85
0.87965	184.12	184.12
0.87965	185.23	185.23
0.87965	187.31	187.31
0.87965	187.56	187.56
0.87965	189.68	189.68
0.87965	191.99	191.99
0.87965	193.74	193.74
0.87965	195.89	195.89
0.87965	199.38	199.38
0.91106	31.263	31.263
0.91106	40.893	40.893
0.91106	46.665	46.665
0.91106	51.385	51.385
0.91106	55.900	55.900
0.91106	60.844	60.844
0.91106	66.462	66.462
0.91106	72.661	72.661
0.91106	79.311	79.311
0.91106	86.316	86.316
0.91106	93.610	93.610
0.91106	101.15	101.15
0.91106	108.89	108.89
0.91106	116.80	116.80
0.91106	124.85	124.85
0.91106	132.96	132.96
0.91106	140.97	140.97
0.91106	148.14	148.14
0.91106	153.58	153.58
0.91106	157.17	157.17
0.91106	160.26	160.26
0.91106	168.27	168.27
0.91106	175.41	175.41
0.91106	175.42	175.42
0.91106	175.44	175.44
0.91106	175.51	175.51
0.91106	175.64	175.64
0.91106	175.86	175.86
0.91106	176.19	176.19
0.91106	176.50	176.50
0.91106	176.80	176.80
0.91106	176.94	176.94
0.91106	177.26	177.26
0.91106	177.65	177.65
0.91106	178.22	178.22
0.91106	179.31	179.31
0.91106	180.71	180.71
0.91106	181.80	181.80
0.91106	182.97	182.97
0.91106	184.74	184.74
0.91106	185.64	185.64
0.91106	186.36	186.36
0.91106	187.65	187.65
0.91106	190.23	190.23
0.91106	192.78	192.78
0.91106	194.27	194.27
0.91106	195.44	195.44
0.91106	197.68	197.68
0.91106	200.76	200.76
0.91106	203.39	203.39
0.94248	32.077	32.077
0.94248	41.953	41.953
0.94248	47.867	47.867
0.94248	52.669	52.669
0.94248	57.177	57.177
0.94248	62.024	62.024
0.94248	67.524	67.524
0.94248	73.620	73.620
0.94248	80.185	80.185
0.94248	87.121	87.121
0.94248	94.361	94.361
0.94248	101.85	101.85
0.94248	109.57	109.57
0.94248	117.47	117.47
0.94248	125.52	125.52
0.94248	133.67	133.67
0.94248	141.83	141.83
0.94248	149.65	149.65
0.94248	155.98	155.98
0.94248	156.23	156.23
0.94248	161.66	161.66
0.94248	169.16	169.16
0.94248	177.41	177.41
0.94248	181.46	181.46
0.94248	181.47	181.47
0.94248	181.49	181.49
0.94248	181.56	181.56
0.94248	181.69	181.69
0.94248	181.91	181.91
0.94248	182.26	182.26
0.94248	182.76	182.76
0.94248	183.15	183.15
0.94248	183.31	183.31
0.94248	183.73	183.73
0.94248	184.21	184.21
0.94248	185.15	185.15
0.94248	185.40	185.40
0.94248	185.92	185.92
0.94248	186.73	186.73
0.94248	187.79	187.79
0.94248	188.89	188.89
0.94248	190.83	190.83
0.94248	193.09	193.09
0.94248	194.84	194.84
0.94248	196.11	196.11
0.94248	198.57	198.57
0.94248	200.70	200.70
0.94248	202.79	202.79
0.94248	204.48	204.48
0.94248	204.92	204.92
0.97389	32.887	32.887
0.97389	43.008	43.008
0.97389	49.061	49.061
0.97389	53.950	53.950
0.97389	58.466	58.466
0.97389	63.227	63.227
0.97389	68.612	68.612
0.97389	74.604	74.604
0.97389	81.082	81.082
0.97389	87.947	87.947
0.97389	95.130	95.130
0.97389	102.58	102.58
0.97389	110.26	110.26
0.97389	118.14	118.14
0.97389	126.18	126.18
0.97389	134.36	134.36
0.97389	142.59	142.59
0.97389	150.70	150.70
0.97389	155.28	155.28
0.97389	158.04	158.04
0.97389	163.67	163.67
0.97389	170.24	170.24
0.97389	178.24	178.24
0.97389	184.43	184.43
0.97389	186.69	186.69
0.97389	187.51	187.51
0.97389	187.52	187.52
0.97389	187.54	187.54
0.97389	187.61	187.61
0.97389	187.73	187.73
0.97389	187.95	187.95
0.97389	188.31	188.31
0.97389	188.81	188.81
0.97389	189.37	189.37
0.97389	189.41	189.41
0.97389	189.86	189.86
0.97389	190.28	190.28
0.97389	191.21	191.21
0.97389	192.50	192.50
0.97389	193.69	193.69
0.97389	194.62	194.62
0.97389	195.64	195.64
0.97389	196.78	196.78
0.97389	198.95	198.95
0.97389	201.41	201.41
0.97389	203.84	203.84
0.97389	203.96	203.96
0.97389	205.19	205.19
0.97389	206.48	206.48
0.97389	208.54	208.54
1.0053	33.694	33.694
1.0053	44.056	44.056
1.0053	50.247	50.247
1.0053	55.226	55.226
1.0053	59.763	59.763
1.0053	64.451	64.451
1.0053	69.724	69.724
1.0053	75.611	75.611
1.0053	82.001	82.001
1.0053	88.794	88.794
1.0053	95.917	95.917
1.0053	103.32	103.32
1.0053	110.97	110.97
1.0053	118.82	118.82
1.0053	126.85	126.85
1.0053	135.03	135.03
1.0053	143.30	143.30
1.0053	151.55	151.55
1.0053	154.32	154.32
1.0053	159.47	159.47
1.0053	166.01	166.01
1.0053	171.71	171.71
1.0053	179.16	179.16
1.0053	183.45	183.45
1.0053	187.54	187.54
1.0053	193.56	193.56
1.0053	193.57	193.57
1.0053	193.59	193.59
1.0053	193.65	193.65
1.0053	193.77	193.77
1.0053	193.99	193.99
1.0053	194.33	194.33
1.0053	194.82	194.82
1.0053	195.43	195.43
1.0053	195.61	195.61
1.0053	195.94	195.94
1.0053	196.21	196.21
1.0053	196.51	196.51
1.0053	197.26	197.26
1.0053	198.48	198.48
1.0053	199.70	199.70
1.0053	200.64	200.64
1.0053	202.37	202.37
1.0053	202.98	202.98
1.0053	204.44	204.44
1.0053	205.82	205.82
1.0053	207.28	207.28
1.0053	209.71	209.71
1.0053	211.87	211.87
1.0053	213.81	213.81
1.0367	34.498	34.498
1.0367	45.099	45.099
1.0367	51.426	51.426
1.0367	56.496	56.496
1.0367	61.066	61.066
1.0367	65.695	65.695
1.0367	70.860	70.860
1.0367	76.643	76.643
1.0367	82.943	82.943
1.0367	89.661	89.661
1.0367	96.724	96.724
1.0367	104.08	104.08
1.0367	111.68	111.68
1.0367	119.51	119.51
1.0367	127.53	127.53
1.0367	135.70	135.70
1.0367	143.99	143.99
1.0367	152.31	152.31
1.0367	153.35	153.35
1.0367	160.49	160.49
1.0367	167.95	167.95
1.0367	173.76	173.76
1.0367	180.28	180.28
1.0367	182.47	182.47
1.0367	188.38	188.38
1.0367	197.16	197.16
1.0367	199.61	199.61
1.0367	199.62	199.62
1.0367	199.64	199.64
1.0367	199.70	199.70
1.0367	199.82	199.82
1.0367	200.03	200.03
1.0367	200.37	200.37
1.0367	200.86	200.86
1.0367	201.51	201.51
1.0367	201.86	201.86
1.0367	201.99	201.99
1.0367	202.13	202.13
1.0367	202.46	202.46
1.0367	203.18	203.18
1.0367	204.35	204.35
1.0367	205.56	205.56
1.0367	206.27	206.27
1.0367	206.84	206.84
1.0367	208.30	208.30
1.0367	210.38	210.38
1.0367	212.71	212.71
1.0367	215.07	215.07
1.0367	216.48	216.48
1.0367	217.72	217.72
1.0681	35.299	35.299
1.0681	46.137	46.137
1.0681	52.599	52.599
1.0681	57.761	57.761
1.0681	62.374	62.374
1.0681	66.956	66.956
1.0681	72.019	72.019
1.0681	77.698	77.698
1.0681	83.907	83.907
1.0681	90.549	90.549
1.0681	97.548	97.548
1.0681	104.85	104.85
1.0681	112.42	112.42
1.0681	120.21	120.21
1.0681	128.21	128.21
1.0681	136.37	136.37
1.0681	144.66	144.66
1.0681	152.38	152.38
1.0681	153.02	153.02
1.0681	161.33	161.33
1.0681	169.31	169.31
1.0681	176.04	176.04
1.0681	181.47	181.47
1.0681	181.82	181.82
1.0681	189.33	189.33
1.0681	198.01	198.01
1.0681	200.98	200.98
1.0681	205.66	205.66
1.0681	205.67	205.67
1.0681	205.69	205.69
1.0681	205.75	205.75
1.0681	205.86	205.86
1.0681	206.07	206.07
1.0681	206.39	206.39
1.0681	206.83	206.83
1.0681	207.19	207.19
1.0681	207.62	207.62
1.0681	208.11	208.11
1.0681	208.28	208.28
1.0681	208.62	208.62
1.0681	209.25	209.25
1.0681	210.35	210.35
1.0681	211.62	211.62
1.0681	212.52	212.52
1.0681	214.00	214.00
1.0681	215.93	215.93
1.0681	217.19	217.19
1.0681	217.27	217.27
1.0681	218.63	218.63
1.0681	220.97	220.97
1.0996	36.099	36.099
1.0996	47.170	47.170
1.0996	53.765	53.765
1.0996	59.020	59.020
1.0996	63.682	63.682
1.0996	68.232	68.232
1.0996	73.200	73.200
1.0996	78.775	78.775
1.0996	84.894	84.894
1.0996	91.458	91.458
1.0996	98.392	98.392
1.0996	105.64	105.64
1.0996	113.16	113.16
1.0996	120.93	120.93
1.0996	128.90	128.90
1.0996	137.04	137.04
1.0996	145.33	145.33
1.0996	151.39	151.39
1.0996	153.70	153.70
1.0996	162.08	162.08
1.0996	170.30	170.30
1.0996	177.88	177.88
1.0996	180.47	180.47
1.0996	183.91	183.91
1.0996	190.50	190.50
1.0996	198.88	198.88
1.0996	199.95	199.95
1.0996	208.09	208.09
1.0996	211.71	211.71
1.0996	211.72	211.72
1.0996	211.74	211.74
1.0996	211.80	211.80
1.0996	211.91	211.91
1.0996	212.12	212.12
1.0996	212.44	212.44
1.0996	212.92	212.92
1.0996	213.57	213.57
1.0996	214.32	214.32
1.0996	214.39	214.39
1.0996	214.79	214.79
1.0996	215.26	215.26
1.0996	216.16	216.16
1.0996	216.25	216.25
1.0996	217.39	217.39
1.0996	217.98	217.98
1.0996	218.62	218.62
1.0996	219.96	219.96
1.0996	221.90	221.90
1.0996	224.12	224.12
1.0996	226.44	226.44
1.1310	36.896	36.896
1.1310	48.198	48.198
1.1310	54.925	54.925
1.1310	60.273	60.273
1.1310	64.991	64.991
1.1310	69.523	69.523
1.1310	74.401	74.401
1.1310	79.875	79.875
1.1310	85.901	85.901
1.1310	92.387	92.387
1.1310	99.255	99.255
1.1310	106.45	106.45
1.1310	113.93	113.93
1.1310	121.65	121.65
1.1310	129.59	129.59
1.1310	137.72	137.72
1.1310	146.00	146.00
1.1310	150.41	150.41
1.1310	154.38	154.38
1.1310	162.78	162.78
1.1310	171.12	171.12
1.1310	179.18	179.18
1.1310	179.46	179.46
1.1310	186.14	186.14
1.1310	192.11	192.11
1.1310	198.90	198.90
1.1310	199.86	199.86
1.1310	208.95	208.95
1.1310	215.04	215.04
1.1310	217.76	217.76
1.1310	217.77	217.77
1.1310	217.79	217.79
1.1310	217.85	217.85
1.1310	217.96	217.96
1.1310	218.15	218.15
1.1310	218.42	218.42
1.1310	218.62	218.62
1.1310	218.99	218.99
1.1310	219.63	219.63
1.1310	220.41	220.41
1.1310	220.67	220.67
1.1310	221.00	221.00
1.1310	221.36	221.36
1.1310	222.30	222.30
1.1310	223.54	223.54
1.1310	224.52	224.52
1.1310	225.74	225.74
1.1310	227.54	227.54
1.1310	228.49	228.49
1.1310	228.95	228.95
1.1624	37.691	37.691
1.1624	49.221	49.221
1.1624	56.079	56.079
1.1624	61.520	61.520
1.1624	66.299	66.299
1.1624	70.825	70.825
1.1624	75.623	75.623
1.1624	80.996	80.996
1.1624	86.931	86.931
1.1624	93.336	93.336
1.1624	100.14	100.14
1.1624	107.27	107.27
1.1624	114.70	114.70
1.1624	122.39	122.39
1.1624	130.30	130.30
1.1624	138.41	138.41
1.1624	146.67	146.67
1.1624	149.42	149.42
1.1624	155.04	155.04
1.1624	163.46	163.46
1.1624	171.86	171.86
1.1624	178.44	178.44
1.1624	180.15	180.15
1.1624	187.93	187.93
1.1624	194.23	194.23
1.1624	197.84	197.84
1.1624	201.07	201.07
1.1624	209.84	209.84
1.1624	213.90	213.90
1.1624	219.52	219.52
1.1624	223.81	223.81
1.1624	223.82	223.82
1.1624	223.84	223.84
1.1624	223.90	223.90
1.1624	224.01	224.01
1.1624	224.20	224.20
1.1624	224.51	224.51
1.1624	224.97	224.97
1.1624	225.61	225.61
1.1624	226.41	226.41
1.1624	226.97	226.97
1.1624	227.18	227.18
1.1624	227.27	227.27
1.1624	227.46	227.46
1.1624	228.26	228.26
1.1624	229.30	229.30
1.1624	229.91	229.91
1.1624	230.63	230.63
1.1624	231.74	231.74
1.1624	233.52	233.52
1.1938	38.484	38.484
1.1938	50.241	50.241
1.1938	57.227	57.227
1.1938	62.761	62.761
1.1938	67.604	67.604
1.1938	72.137	72.137
1.1938	76.864	76.864
1.1938	82.139	82.139
1.1938	87.981	87.981
1.1938	94.306	94.306
1.1938	101.04	101.04
1.1938	108.11	108.11
1.1938	115.49	115.49
1.1938	123.14	123.14
1.1938	131.02	131.02
1.1938	139.10	139.10
1.1938	147.35	147.35
1.1938	148.42	148.42
1.1938	155.71	155.71
1.1938	164.13	164.13
1.1938	172.56	172.56
1.1938	177.41	177.41
1.1938	180.97	180.97
1.1938	189.21	189.21
1.1938	196.45	196.45
1.1938	196.77	196.77
1.1938	202.70	202.70
1.1938	210.83	210.83
1.1938	212.74	212.74
1.1938	220.38	220.38
1.1938	226.03	226.03
1.1938	229.86	229.86
1.1938	229.87	229.87
1.1938	229.89	229.89
1.1938	229.94	229.94
1.1938	230.05	230.05
1.1938	230.23	230.23
1.1938	230.43	230.43
1.1938	230.62	230.62
1.1938	231.04	231.04
1.1938	231.66	231.66
1.1938	232.47	232.47
1.1938	233.28	233.28
1.1938	233.33	233.33
1.1938	233.68	233.68
1.1938	234.36	234.36
1.1938	235.48	235.48
1.1938	236.58	236.58
1.1938	237.59	237.59
1.1938	237.96	237.96
1.2252	39.276	39.276
1.2252	51.257	51.257
1.2252	58.371	58.371
1.2252	63.997	63.997
1.2252	68.906	68.906
1.2252	73.455	73.455
1.2252	78.122	78.122
1.2252	83.302	83.302
1.2252	89.051	89.051
1.2252	95.295	95.295
1.2252	101.95	101.95
1.2252	108.97	108.97
1.2252	116.30	116.30
1.2252	123.90	123.90
1.2252	131.75	131.75
1.2252	139.80	139.80
1.2252	147.42	147.42
1.2252	148.02	148.02
1.2252	156.37	156.37
1.2252	164.79	164.79
1.2252	173.23	173.23
1.2252	176.38	176.38
1.2252	181.71	181.71
1.2252	190.19	190.19
1.2252	195.68	195.68
1.2252	198.26	198.26
1.2252	204.83	204.83
1.2252	211.57	211.57
1.2252	212.05	212.05
1.2252	221.28	221.28
1.2252	224.78	224.78
1.2252	231.44	231.44
1.2252	235.91	235.91
1.2252	235.92	235.92
1.2252	235.94	235.94
1.2252	235.99	235.99
1.2252	236.10	236.10
1.2252	236.29	236.29
1.2252	236.59	236.59
1.2252	236.61	236.61
1.2252	237.03	237.03
1.2252	237.65	237.65
1.2252	238.45	238.45
1.2252	239.37	239.37
1.2252	239.61	239.61
1.2252	239.93	239.93
1.2252	240.38	240.38
1.2252	241.36	241.36
1.2252	242.14	242.14
1.2252	242.76	242.76
1.2566	40.066	40.066
1.2566	52.269	52.269
1.2566	59.509	59.509
1.2566	65.227	65.227
1.2566	70.205	70.205
1.2566	74.780	74.780
1.2566	79.397	79.397
1.2566	84.485	84.485
1.2566	90.143	90.143
1.2566	96.304	96.304
1.2566	102.89	102.89
1.2566	109.85	109.85
1.2566	117.12	117.12
1.2566	124.68	124.68
1.2566	132.49	132.49
1.2566	140.51	140.51
1.2566	146.42	146.42
1.2566	148.71	148.71
1.2566	157.04	157.04
1.2566	165.44	165.44
1.2566	173.89	173.89
1.2566	175.34	175.34
1.2566	182.40	182.40
1.2566	191.01	191.01
1.2566	194.58	194.58
1.2566	199.57	199.57
1.2566	207.08	207.08
1.2566	210.38	210.38
1.2566	213.66	213.66
1.2566	222.28	222.28
1.2566	223.51	223.51
1.2566	232.31	232.31
1.2566	235.26	235.26
1.2566	241.97	241.97
1.2566	241.97	241.97
1.2566	241.99	241.99
1.2566	242.04	242.04
1.2566	242.15	242.15
1.2566	242.33	242.33
1.2566	242.60	242.60
1.2566	242.87	242.87
1.2566	243.14	243.14
1.2566	243.71	243.71
1.2566	244.50	244.50
1.2566	245.44	245.44
1.2566	245.47	245.47
1.2566	245.95	245.95
1.2566	246.22	246.22
1.2566	246.51	246.51
1.2566	247.49	247.49
1.2881	40.855	40.855
1.2881	53.277	53.277
1.2881	60.642	60.642
1.2881	66.452	66.452
1.2881	71.499	71.499
1.2881	76.108	76.108
1.2881	80.687	80.687
1.2881	85.688	85.688
1.2881	91.254	91.254
1.2881	97.332	97.332
1.2881	103.85	103.85
1.2881	110.74	110.74
1.2881	117.96	117.96
1.2881	125.47	125.47
1.2881	133.24	133.24
1.2881	141.23	141.23
1.2881	145.41	145.41
1.2881	149.40	149.40
1.2881	157.71	157.71
1.2881	166.10	166.10
1.2881	174.30	174.30
1.2881	174.54	174.54
1.2881	183.07	183.07
1.2881	191.76	191.76
1.2881	193.48	193.48
1.2881	200.58	200.58
1.2881	208.96	208.96
1.2881	209.18	209.18
1.2881	215.76	215.76
1.2881	222.23	222.23
1.2881	223.47	223.47
1.2881	233.20	233.20
1.2881	233.89	233.89
1.2881	243.86	243.86
1.2881	244.06	244.06
1.2881	248.02	248.02
1.2881	248.02	248.02
1.2881	248.04	248.04
1.2881	248.10	248.10
1.2881	248.20	248.20
1.2881	248.38	248.38
1.2881	248.67	248.67
1.2881	249.10	249.10
1.2881	249.69	249.69
1.2881	250.47	250.47
1.2881	251.43	251.43
1.2881	252.28	252.28
1.2881	252.30	252.30
1.2881	252.40	252.40
1.2881	252.68	252.68
1.3195	41.643	41.643
1.3195	54.283	54.283
1.3195	61.771	61.771
1.3195	67.672	67.672
1.3195	72.789	72.789
1.3195	77.438	77.438
1.3195	81.990	81.990
1.3195	86.909	86.909
1.3195	92.384	92.384
1.3195	98.380	98.380
1.3195	104.82	104.82
1.3195	111.65	111.65
1.3195	118.81	118.81
1.3195	126.28	126.28
1.3195	134.01	134.01
1.3195	141.96	141.96
1.3195	144.40	144.40
1.3195	150.10	150.10
1.3195	158.38	158.38
1.3195	166.75	166.75
1.3195	173.25	173.25
1.3195	175.19	175.19
1.3195	183.73	183.73
1.3195	192.36	192.36
1.3195	192.46	192.46
1.3195	201.44	201.44
1.3195	207.97	207.97
1.3195	210.35	210.35
1.3195	218.04	218.04
1.3195	220.94	220.94
1.3195	225.01	225.01
1.3195	232.51	232.51
1.3195	234.18	234.18
1.3195	242.63	242.63
1.3195	244.73	244.73
1.3195	250.89	250.89
1.3195	254.07	254.07
1.3195	254.08	254.08
1.3195	254.10	254.10
1.3195	254.15	254.15
1.3195	254.25	254.25
1.3195	254.42	254.42
1.3195	254.71	254.71
1.3195	255.11	255.11
1.3195	255.60	255.60
1.3195	255.95	255.95
1.3195	256.30	256.30
1.3195	256.56	256.56
1.3195	257.49	257.49
1.3195	258.52	258.52
1.3509	42.430	42.430
1.3509	55.285	55.285
1.3509	62.895	62.895
1.3509	68.888	68.888
1.3509	74.075	74.075
1.3509	78.769	78.769
1.3509	83.305	83.305
1.3509	88.149	88.149
1.3509	93.534	93.534
1.3509	99.446	99.446
1.3509	105.81	105.81
1.3509	112.58	112.58
1.3509	119.68	119.68
1.3509	127.10	127.10
1.3509	134.78	134.78
1.3509	142.70	142.70
1.3509	143.39	143.39
1.3509	150.81	150.81
1.3509	159.06	159.06
1.3509	167.41	167.41
1.3509	172.20	172.20
1.3509	175.83	175.83
1.3509	184.37	184.37
1.3509	191.23	191.23
1.3509	193.14	193.14
1.3509	202.20	202.20
1.3509	206.75	206.75
1.3509	211.42	211.42
1.3509	219.63	219.63
1.3509	220.03	220.03
1.3509	227.01	227.01
1.3509	231.13	231.13
1.3509	235.32	235.32
1.3509	241.20	241.20
1.3509	245.61	245.61
1.3509	249.49	249.49
1.3509	254.96	254.96
1.3509	256.79	256.79
1.3509	260.12	260.12
1.3509	260.13	260.13
1.3509	260.15	260.15
1.3509	260.20	260.20
1.3509	260.30	260.30
1.3509	260.47	260.47
1.3509	260.76	260.76
1.3509	261.17	261.17
1.3509	261.58	261.58
1.3509	261.73	261.73
1.3509	262.49	262.49
1.3509	263.45	263.45
1.3823	43.216	43.216
1.3823	56.285	56.285
1.3823	64.016	64.016
1.3823	70.098	70.098
1.3823	75.356	75.356
1.3823	80.099	80.099
1.3823	84.630	84.630
1.3823	89.406	89.406
1.3823	94.703	94.703
1.3823	100.53	100.53
1.3823	106.82	106.82
1.3823	113.52	113.52
1.3823	120.57	120.57
1.3823	127.93	127.93
1.3823	135.57	135.57
1.3823	142.38	142.38
1.3823	143.45	143.45
1.3823	151.53	151.53
1.3823	159.75	159.75
1.3823	168.07	168.07
1.3823	171.14	171.14
1.3823	176.47	176.47
1.3823	185.01	185.01
1.3823	190.09	190.09
1.3823	193.80	193.80
1.3823	202.93	202.93
1.3823	205.52	205.52
1.3823	212.32	212.32
1.3823	218.32	218.32
1.3823	221.55	221.55
1.3823	229.30	229.30
1.3823	229.74	229.74
1.3823	236.75	236.75
1.3823	239.76	239.76
1.3823	246.56	246.56
1.3823	248.07	248.07
1.3823	253.62	253.62
1.3823	257.66	257.66
1.3823	260.08	260.08
1.3823	266.18	266.18
1.3823	266.18	266.18
1.3823	266.20	266.20
1.3823	266.25	266.25
1.3823	266.35	266.35
1.3823	266.52	266.52
1.3823	266.80	266.80
1.3823	267.19	267.19
1.3823	267.74	267.74
1.3823	267.78	267.78
1.3823	268.46	268.46
1.4137	44.001	44.001
1.4137	57.281	57.281
1.4137	65.133	65.133
1.4137	71.305	71.305
1.4137	76.633	76.633
1.4137	81.429	81.429
1.4137	85.964	85.964
1.4137	90.679	90.679
1.4137	95.891	95.891
1.4137	101.64	101.64
1.4137	107.85	107.85
1.4137	114.48	114.48
1.4137	121.47	121.47
1.4137	128.78	128.78
1.4137	136.37	136.37
1.4137	141.36	141.36
1.4137	144.21	144.21
1.4137	152.25	152.25
1.4137	160.44	160.44
1.4137	168.74	168.74
1.4137	170.08	170.08
1.4137	177.12	177.12
1.4137	185.65	185.65
1.4137	188.95	188.95
1.4137	194.46	194.46
1.4137	203.62	203.62
1.4137	204.28	204.28
1.4137	213.12	213.12
1.4137	217.01	217.01
1.4137	222.70	222.70
1.4137	228.34	228.34
1.4137	231.43	231.43
1.4137	238.32	238.32
1.4137	238.62	238.62
1.4137	246.65	246.65
1.4137	247.64	247.64
1.4137	252.27	252.27
1.4137	258.54	258.54
1.4137	258.59	258.59
1.4137	266.19	266.19
1.4137	270.28	270.28
1.4137	272.23	272.23
1.4137	272.23	272.23
1.4137	272.25	272.25
1.4137	272.30	272.30
1.4137	272.40	272.40
1.4137	272.57	272.57
1.4137	272.85	272.85
1.4137	273.24	273.24
1.4137	273.70	273.70
1.4451	44.786	44.786
1.4451	58.276	58.276
1.4451	66.246	66.246
1.4451	72.507	72.507
1.4451	77.905	77.905
1.4451	82.756	82.756
1.4451	87.305	87.305
1.4451	91.967	91.967
1.4451	97.096	97.096
1.4451	102.76	102.76
1.4451	108.90	108.90
1.4451	115.46	115.46
1.4451	122.39	122.39
1.4451	129.65	129.65
1.4451	137.19	137.19
1.4451	140.35	140.35
1.4451	144.99	144.99
1.4451	152.99	152.99
1.4451	161.14	161.14
1.4451	169.01	169.01
1.4451	169.41	169.41
1.4451	177.77	177.77
1.4451	186.29	186.29
1.4451	187.80	187.80
1.4451	195.11	195.11
1.4451	203.03	203.03
1.4451	204.30	204.30
1.4451	213.86	213.86
1.4451	215.68	215.68
1.4451	223.66	223.66
1.4451	226.94	226.94
1.4451	233.12	233.12
1.4451	236.86	236.86
1.4451	240.86	240.86
1.4451	245.21	245.21
1.4451	248.95	248.95
1.4451	250.92	250.92
1.4451	257.10	257.10
1.4451	259.45	259.45
1.4451	264.61	264.61
1.4451	271.16	271.16
1.4451	272.05	272.05
1.4451	278.28	278.28
1.4451	278.29	278.29
1.4451	278.31	278.31
1.4451	278.35	278.35
1.4451	278.45	278.45
1.4451	278.62	278.62
1.4451	278.89	278.89
1.4451	279.21	279.21
1.4765	45.570	45.570
1.4765	59.268	59.268
1.4765	67.355	67.355
1.4765	73.706	73.706
1.4765	79.174	79.174
1.4765	84.081	84.081
1.4765	88.650	88.650
1.4765	93.270	93.270
1.4765	98.319	98.319
1.4765	103.90	103.90
1.4765	109.96	109.96
1.4765	116.46	116.46
1.4765	123.32	123.32
1.4765	130.52	130.52
1.4765	138.02	138.02
1.4765	139.34	139.34
1.4765	145.77	145.77
1.4765	153.73	153.73
1.4765	161.85	161.85
1.4765	167.94	167.94
1.4765	170.09	170.09
1.4765	178.42	178.42
1.4765	186.65	186.65
1.4765	186.93	186.93
1.4765	195.75	195.75
1.4765	201.78	201.78
1.4765	204.96	204.96
1.4765	214.35	214.35
1.4765	214.57	214.57
1.4765	224.49	224.49
1.4765	225.54	225.54
1.4765	234.40	234.40
1.4765	235.41	235.41
1.4765	243.11	243.11
1.4765	243.76	243.76
1.4765	249.56	249.56
1.4765	250.63	250.63
1.4765	255.61	255.61
1.4765	260.47	260.47
1.4765	263.02	263.02
1.4765	270.40	270.40
1.4765	272.02	272.02
1.4765	277.51	277.51
1.4765	284.32	284.32
1.4765	284.32	284.32
1.4765	284.34	284.34
1.4765	284.34	284.34
1.4765	284.36	284.36
1.4765	284.41	284.41
1.4765	284.51	284.51
1.5080	46.354	46.354
1.5080	60.257	60.257
1.5080	68.461	68.461
1.5080	74.901	74.901
1.5080	80.439	80.439
1.5080	85.403	85.403
1.5080	90.000	90.000
1.5080	94.587	94.587
1.5080	99.560	99.560
1.5080	105.06	105.06
1.5080	111.05	111.05
1.5080	117.47	117.47
1.5080	124.27	124.27
1.5080	131.42	131.42
1.5080	138.32	138.32
1.5080	138.86	138.86
1.5080	146.57	146.57
1.5080	154.49	154.49
1.5080	162.57	162.57
1.5080	166.86	166.86
1.5080	170.77	170.77
1.5080	179.08	179.08
1.5080	185.48	185.48
1.5080	187.58	187.58
1.5080	196.40	196.40
1.5080	200.52	200.52
1.5080	205.62	205.62
1.5080	213.02	213.02
1.5080	215.27	215.27
1.5080	224.13	224.13
1.5080	225.27	225.27
1.5080	233.95	233.95
1.5080	235.43	235.43
1.5080	242.31	242.31
1.5080	245.01	245.01
1.5080	248.20	248.20
1.5080	252.74	252.74
1.5080	254.12	254.12
1.5080	261.43	261.43
1.5080	261.65	261.65
1.5080	268.75	268.75
1.5080	272.91	272.91
1.5080	275.81	275.81
1.5080	282.57	282.57
1.5080	285.29	285.29
1.5080	287.59	287.59
1.5080	289.06	289.06
1.5080	290.39	290.39
1.5080	290.40	290.40
1.5080	290.41	290.41
1.5394	47.137	47.137
1.5394	61.245	61.245
1.5394	69.565	69.565
1.5394	76.092	76.092
1.5394	81.700	81.700
1.5394	86.722	86.722
1.5394	91.352	91.352
1.5394	95.915	95.915
1.5394	100.82	100.82
1.5394	106.23	106.23
1.5394	112.15	112.15
1.5394	118.50	118.50
1.5394	125.24	125.24
1.5394	132.33	132.33
1.5394	137.31	137.31
1.5394	139.72	139.72
1.5394	147.38	147.38
1.5394	155.25	155.25
1.5394	163.30	163.30
1.5394	165.78	165.78
1.5394	171.46	171.46
1.5394	179.74	179.74
1.5394	184.32	184.32
1.5394	188.23	188.23
1.5394	197.04	197.04
1.5394	199.26	199.26
1.5394	206.28	206.28
1.5394	211.68	211.68
1.5394	215.95	215.95
1.5394	222.72	222.72
1.5394	226.00	226.00
1.5394	232.48	232.48
1.5394	236.32	236.32
1.5394	240.84	240.84
1.5394	246.47	246.47
1.5394	246.83	246.83
1.5394	252.63	252.63
1.5394	255.05	255.05
1.5394	259.84	259.84
1.5394	263.13	263.13
1.5394	267.10	267.10
1.5394	273.86	273.86
1.5394	274.11	274.11
1.5394	280.82	280.82
1.5394	286.14	286.14
1.5394	287.28	287.28
1.5394	289.12	289.12
1.5394	293.52	293.52
1.5394	296.45	296.45
1.5394	296.45	296.45
1.5708	47.921	47.921
1.5708	62.231	62.231
1.5708	70.665	70.665
1.5708	77.280	77.280
1.5708	82.958	82.958
1.5708	88.038	88.038
1.5708	92.706	92.706
1.5708	97.254	97.254
1.5708	102.09	102.09
1.5708	107.43	107.43
1.5708	113.26	113.26
1.5708	119.55	119.55
1.5708	126.22	126.22
1.5708	133.25	133.25
1.5708	136.29	136.29
1.5708	140.59	140.59
1.5708	148.20	148.20
1.5708	156.03	156.03
1.5708	164.03	164.03
1.5708	164.70	164.70
1.5708	172.16	172.16
1.5708	180.41	180.41
1.5708	183.14	183.14
1.5708	188.88	188.88
1.5708	197.69	197.69
1.5708	197.99	197.99
1.5708	206.93	206.93
1.5708	210.33	210.33
1.5708	216.62	216.62
1.5708	221.30	221.30
1.5708	226.71	226.71
1.5708	231.02	231.02
1.5708	237.12	237.12
1.5708	239.37	239.37
1.5708	245.46	245.46
1.5708	247.62	247.62
1.5708	251.15	251.15
1.5708	257.17	257.17
1.5708	258.25	258.25
1.5708	265.02	265.02
1.5708	265.45	265.45
1.5708	272.40	272.40
1.5708	274.94	274.94
1.5708	279.08	279.08
1.5708	285.49	285.49
1.5708	287.00	287.00
1.5708	290.65	290.65
1.5708	291.70	291.70
1.5708	297.78	297.78
1.5708	300.12	300.12
1.6022	48.704	48.704
1.6022	63.215	63.215
1.6022	71.763	71.763
1.6022	78.464	78.464
1.6022	84.212	84.212
1.6022	89.351	89.351
1.6022	94.060	94.060
1.6022	98.602	98.602
1.6022	103.38	103.38
1.6022	108.64	108.64
1.6022	114.40	114.40
1.6022	120.61	120.61
1.6022	127.22	127.22
1.6022	134.19	134.19
1.6022	135.28	135.28
1.6022	141.48	141.48
1.6022	149.04	149.04
1.6022	156.82	156.82
1.6022	163.62	163.62
1.6022	164.78	164.78
1.6022	172.86	172.86
1.6022	181.09	181.09
1.6022	181.97	181.97
1.6022	189.54	189.54
1.6022	196.72	196.72
1.6022	198.34	198.34
1.6022	207.59	207.59
1.6022	208.99	208.99
1.6022	217.28	217.28
1.6022	219.88	219.88
1.6022	227.40	227.40
1.6022	229.55	229.55
1.6022	237.88	237.88
1.6022	237.90	237.90
1.6022	244.07	244.07
1.6022	248.58	248.58
1.6022	249.68	249.68
1.6022	256.66	256.66
1.6022	258.89	258.89
1.6022	263.79	263.79
1.6022	267.27	267.27
1.6022	270.70	270.70
1.6022	276.22	276.22
1.6022	277.33	277.33
1.6022	283.70	283.70
1.6022	287.90	287.90
1.6022	289.87	289.87
1.6022	292.20	292.20
1.6022	295.92	295.92
1.6022	300.98	300.98
1.6336	49.488	49.488
1.6336	64.197	64.197
1.6336	72.858	72.858
1.6336	79.646	79.646
1.6336	85.463	85.463
1.6336	90.660	90.660
1.6336	95.414	95.414
1.6336	99.958	99.958
1.6336	104.68	104.68
1.6336	109.86	109.86
1.6336	115.55	115.55
1.6336	121.69	121.69
1.6336	128.24	128.24
1.6336	134.27	134.27
1.6336	135.15	135.15
1.6336	142.38	142.38
1.6336	149.88	149.88
1.6336	157.62	157.62
1.6336	162.54	162.54
1.6336	165.53	165.53
1.6336	173.58	173.58
1.6336	180.79	180.79
1.6336	181.77	181.77
1.6336	190.20	190.20
1.6336	195.45	195.45
1.6336	199.00	199.00
1.6336	207.64	207.64
1.6336	208.25	208.25
1.6336	217.95	217.95
1.6336	218.46	218.46
1.6336	228.08	228.08
1.6336	228.08	228.08
1.6336	236.42	236.42
1.6336	238.61	238.61
1.6336	242.68	242.68
1.6336	248.21	248.21
1.6336	249.44	249.44
1.6336	255.07	255.07
1.6336	260.21	260.21
1.6336	262.14	262.14
1.6336	269.00	269.00
1.6336	269.56	269.56
1.6336	275.58	275.58
1.6336	277.85	277.85
1.6336	281.91	281.91
1.6336	288.04	288.04
1.6336	288.89	288.89
1.6336	293.77	293.77
1.6336	294.06	294.06
1.6336	300.05	300.05
1.6650	50.272	50.272
1.6650	65.178	65.178
1.6650	73.951	73.951
1.6650	80.825	80.825
1.6650	86.711	86.711
1.6650	91.967	91.967
1.6650	96.767	96.767
1.6650	101.32	101.32
1.6650	106.00	106.00
1.6650	111.11	111.11
1.6650	116.72	116.72
1.6650	122.79	122.79
1.6650	129.27	129.27
1.6650	133.26	133.26
1.6650	136.12	136.12
1.6650	143.29	143.29
1.6650	150.74	150.74
1.6650	158.43	158.43
1.6650	161.45	161.45
1.6650	166.30	166.30
1.6650	174.30	174.30
1.6650	179.61	179.61
1.6650	182.46	182.46
1.6650	190.87	190.87
1.6650	194.17	194.17
1.6650	199.66	199.66
1.6650	206.28	206.28
1.6650	208.91	208.91
1.6650	217.04	217.04
1.6650	218.61	218.61
1.6650	226.60	226.60
1.6650	228.76	228.76
1.6650	234.93	234.93
1.6650	239.31	239.31
1.6650	241.28	241.28
1.6650	246.74	246.74
1.6650	250.22	250.22
1.6650	253.49	253.49
1.6650	260.49	260.49
1.6650	261.29	261.29
1.6650	267.29	267.29
1.6650	271.57	271.57
1.6650	273.83	273.83
1.6650	279.88	279.88
1.6650	280.12	280.12
1.6650	286.22	286.22
1.6650	290.01	290.01
1.6650	292.21	292.21
1.6650	295.34	295.34
1.6650	298.17	298.17
1.6965	51.056	51.056
1.6965	66.158	66.158
1.6965	75.041	75.041
1.6965	82.001	82.001
1.6965	87.956	87.956
1.6965	93.271	93.271
1.6965	98.119	98.119
1.6965	102.69	102.69
1.6965	107.33	107.33
1.6965	112.37	112.37
1.6965	117.90	117.90
1.6965	123.90	123.90
1.6965	130.32	130.32
1.6965	132.25	132.25
1.6965	137.10	137.10
1.6965	144.22	144.22
1.6965	151.62	151.62
1.6965	159.26	159.26
1.6965	160.36	160.36
1.6965	167.07	167.07
1.6965	175.04	175.04
1.6965	178.42	178.42
1.6965	183.16	183.16
1.6965	191.55	191.55
1.6965	192.89	192.89
1.6965	200.33	200.33
1.6965	204.93	204.93
1.6965	209.57	209.57
1.6965	215.62	215.62
1.6965	219.28	219.28
1.6965	225.13	225.13
1.6965	229.43	229.43
1.6965	233.44	233.44
1.6965	239.88	239.88
1.6965	240.00	240.00
1.6965	245.28	245.28
1.6965	250.97	250.97
1.6965	251.91	251.91
1.6965	258.84	258.84
1.6965	262.21	262.21
1.6965	265.59	265.59
1.6965	272.08	272.08
1.6965	273.17	273.17
1.6965	278.33	278.33
1.6965	282.19	282.19
1.6965	284.39	284.39
1.6965	290.35	290.35
1.6965	291.37	291.37
1.6965	296.29	296.29
1.6965	296.93	296.93
1.7279	51.840	51.840
1.7279	67.136	67.136
1.7279	76.130	76.130
1.7279	83.175	83.175
1.7279	89.199	89.199
1.7279	94.572	94.572
1.7279	99.469	99.469
1.7279	104.06	104.06
1.7279	108.67	108.67
1.7279	113.64	113.64
1.7279	119.10	119.10
1.7279	125.03	125.03
1.7279	131.24	131.24
1.7279	131.38	131.38
1.7279	138.10	138.10
1.7279	145.16	145.16
1.7279	152.51	152.51
1.7279	159.27	159.27
1.7279	160.09	160.09
1.7279	167.86	167.86
1.7279	175.78	175.78
1.7279	177.23	177.23
1.7279	183.87	183.87
1.7279	191.61	191.61
1.7279	192.23	192.23
1.7279	201.00	201.00
1.7279	203.57	203.57
1.7279	210.24	210.24
1.7279	214.20	214.20
1.7279	219.94	219.94
1.7279	223.66	223.66
1.7279	230.10	230.10
1.7279	231.95	231.95
1.7279	238.46	238.46
1.7279	240.69	240.69
1.7279	243.83	243.83
1.7279	250.33	250.33
1.7279	251.69	251.69
1.7279	257.19	257.19
1.7279	263.04	263.04
1.7279	263.89	263.89
1.7279	270.34	270.34
1.7279	274.42	274.42
1.7279	276.55	276.55
1.7279	282.57	282.57
1.7279	284.46	284.46
1.7279	288.50	288.50
1.7279	293.08	293.08
1.7279	294.41	294.41
1.7279	298.54	298.54
1.7593	52.625	52.625
1.7593	68.114	68.114
1.7593	77.217	77.217
1.7593	84.347	84.347
1.7593	90.438	90.438
1.7593	95.870	95.870
1.7593	100.82	100.82
1.7593	105.44	105.44
1.7593	110.02	110.02
1.7593	114.93	114.93
1.7593	120.32	120.32
1.7593	126.18	126.18
1.7593	130.23	130.23
1.7593	132.46	132.46
1.7593	139.12	139.12
1.7593	146.12	146.12
1.7593	153.41	153.41
1.7593	158.18	158.18
1.7593	160.94	160.94
1.7593	168.66	168.66
1.7593	176.05	176.05
1.7593	176.53	176.53
1.7593	184.58	184.58
1.7593	190.33	190.33
1.7593	192.93	192.93
1.7593	201.68	201.68
1.7593	202.22	202.22
1.7593	210.91	210.91
1.7593	212.77	212.77
1.7593	220.61	220.61
1.7593	222.18	222.18
1.7593	230.45	230.45
1.7593	230.77	230.77
1.7593	237.04	237.04
1.7593	241.37	241.37
1.7593	242.38	242.38
1.7593	248.76	248.76
1.7593	252.40	252.40
1.7593	255.55	255.55
1.7593	262.19	262.19
1.7593	263.82	263.82
1.7593	268.59	268.59
1.7593	274.76	274.76
1.7593	275.46	275.46
1.7593	280.75	280.75
1.7593	286.41	286.41
1.7593	286.64	286.64
1.7593	292.53	292.53
1.7593	295.19	295.19
1.7593	298.46	298.46
1.7907	53.411	53.411
1.7907	69.090	69.090
1.7907	78.301	78.301
1.7907	85.516	85.516
1.7907	91.676	91.676
1.7907	97.166	97.166
1.7907	102.16	102.16
1.7907	106.81	106.81
1.7907	111.39	111.39
1.7907	116.24	116.24
1.7907	121.55	121.55
1.7907	127.34	127.34
1.7907	129.22	129.22
1.7907	133.55	133.55
1.7907	140.15	140.15
1.7907	147.09	147.09
1.7907	154.32	154.32
1.7907	157.09	157.09
1.7907	161.80	161.80
1.7907	169.47	169.47
1.7907	174.85	174.85
1.7907	177.29	177.29
1.7907	185.31	185.31
1.7907	189.05	189.05
1.7907	193.63	193.63
1.7907	200.86	200.86
1.7907	202.37	202.37
1.7907	211.35	211.35
1.7907	211.59	211.59
1.7907	220.71	220.71
1.7907	221.28	221.28
1.7907	228.95	228.95
1.7907	231.44	231.44
1.7907	235.60	235.60
1.7907	240.94	240.94
1.7907	242.04	242.04
1.7907	247.20	247.20
1.7907	253.09	253.09
1.7907	253.91	253.91
1.7907	260.50	260.50
1.7907	264.56	264.56
1.7907	266.85	266.85
1.7907	272.98	272.98
1.7907	276.36	276.36
1.7907	278.93	278.93
1.7907	284.79	284.79
1.7907	287.96	287.96
1.7907	290.65	290.65
1.7907	296.57	296.57
1.7907	297.54	297.54
1.8221	54.197	54.197
1.8221	70.065	70.065
1.8221	79.385	79.385
1.8221	86.684	86.684
1.8221	92.911	92.911
1.8221	98.460	98.460
1.8221	103.51	103.51
1.8221	108.19	108.19
1.8221	112.76	112.76
1.8221	117.55	117.55
1.8221	122.80	122.80
1.8221	128.22	128.22
1.8221	128.52	128.52
1.8221	134.66	134.66
1.8221	141.20	141.20
1.8221	148.08	148.08
1.8221	155.25	155.25
1.8221	156.00	156.00
1.8221	162.67	162.67
1.8221	170.29	170.29
1.8221	173.66	173.66
1.8221	178.06	178.06
1.8221	186.04	186.04
1.8221	187.76	187.76
1.8221	194.34	194.34
1.8221	199.51	199.51
1.8221	203.07	203.07
1.8221	209.93	209.93
1.8221	212.28	212.28
1.8221	219.23	219.23
1.8221	221.96	221.96
1.8221	227.46	227.46
1.8221	232.11	232.11
1.8221	234.16	234.16
1.8221	239.50	239.50
1.8221	242.71	242.71
1.8221	245.64	245.64
1.8221	252.27	252.27
1.8221	253.77	253.77
1.8221	258.80	258.80
1.8221	265.11	265.11
1.8221	265.28	265.28
1.8221	271.20	271.20
1.8221	277.11	277.11
1.8221	277.19	277.19
1.8221	282.95	282.95
1.8221	288.78	288.78
1.8221	289.19	289.19
1.8221	294.68	294.68
1.8221	299.82	299.82
1.8535	54.984	54.984
1.8535	71.040	71.040
1.8535	80.467	80.467
1.8535	87.849	87.849
1.8535	94.144	94.144
1.8535	99.751	99.751
1.8535	104.85	104.85
1.8535	109.57	109.57
1.8535	114.14	114.14
1.8535	118.89	118.89
1.8535	124.06	124.06
1.8535	127.22	127.22
1.8535	129.71	129.71
1.8535	135.79	135.79
1.8535	142.26	142.26
1.8535	149.08	149.08
1.8535	154.91	154.91
1.8535	156.19	156.19
1.8535	163.56	163.56
1.8535	171.12	171.12
1.8535	172.47	172.47
1.8535	178.85	178.85
1.8535	186.48	186.48
1.8535	186.79	186.79
1.8535	195.06	195.06
1.8535	198.15	198.15
1.8535	203.77	203.77
1.8535	208.51	208.51
1.8535	212.97	212.97
1.8535	217.76	217.76
1.8535	222.64	222.64
1.8535	225.95	225.95
1.8535	232.71	232.71
1.8535	232.78	232.78
1.8535	238.07	238.07
1.8535	243.39	243.39
1.8535	244.08	244.08
1.8535	250.63	250.63
1.8535	254.45	254.45
1.8535	257.11	257.11
1.8535	263.37	263.37
1.8535	265.99	265.99
1.8535	269.42	269.42
1.8535	275.30	275.30
1.8535	277.96	277.96
1.8535	281.10	281.10
1.8535	286.91	286.91
1.8535	290.22	290.22
1.8535	292.79	292.79
1.8535	298.77	298.77
1.8850	55.771	55.771
1.8850	72.014	72.014
1.8850	81.547	81.547
1.8850	89.013	89.013
1.8850	95.376	95.376
1.8850	101.04	101.04
1.8850	106.19	106.19
1.8850	110.95	110.95
1.8850	115.52	115.52
1.8850	120.23	120.23
1.8850	125.34	125.34
1.8850	126.22	126.22
1.8850	130.92	130.92
1.8850	136.93	136.93
1.8850	143.34	143.34
1.8850	150.09	150.09
1.8850	153.81	153.81
1.8850	157.15	157.15
1.8850	164.46	164.46
1.8850	171.28	171.28
1.8850	171.96	171.96
1.8850	179.64	179.64
1.8850	185.19	185.19
1.8850	187.55	187.55
1.8850	195.79	195.79
1.8850	196.79	196.79
1.8850	204.49	204.49
1.8850	207.09	207.09
1.8850	213.67	213.67
1.8850	216.29	216.29
1.8850	223.33	223.33
1.8850	224.45	224.45
1.8850	231.26	231.26
1.8850	233.46	233.46
1.8850	236.64	236.64
1.8850	242.54	242.54
1.8850	244.06	244.06
1.8850	249.00	249.00
1.8850	255.13	255.13
1.8850	255.42	255.42
1.8850	261.64	261.64
1.8850	266.68	266.68
1.8850	267.64	267.64
1.8850	273.49	273.49
1.8850	278.71	278.71
1.8850	279.26	279.26
1.8850	285.05	285.05
1.8850	290.91	290.91
1.8850	291.12	291.12
1.8850	296.87	296.87
1.9164	56.560	56.560
1.9164	72.987	72.987
1.9164	82.626	82.626
1.9164	90.175	90.175
1.9164	96.605	96.605
1.9164	102.33	102.33
1.9164	107.53	107.53
1.9164	112.33	112.33
1.9164	116.91	116.91
1.9164	121.59	121.59
1.9164	125.22	125.22
1.9164	126.64	126.64
1.9164	132.15	132.15
1.9164	138.09	138.09
1.9164	144.43	144.43
1.9164	151.13	151.13
1.9164	152.72	152.72
1.9164	158.12	158.12
1.9164	165.37	165.37
1.9164	170.08	170.08
1.9164	172.82	172.82
1.9164	180.45	180.45
1.9164	183.91	183.91
1.9164	188.31	188.31
1.9164	195.44	195.44
1.9164	196.53	196.53
1.9164	205.21	205.21
1.9164	205.67	205.67
1.9164	214.37	214.37
1.9164	214.82	214.82
1.9164	222.95	222.95
1.9164	224.02	224.02
1.9164	229.79	229.79
1.9164	234.14	234.14
1.9164	235.21	235.21
1.9164	241.00	241.00
1.9164	244.74	244.74
1.9164	247.38	247.38
1.9164	253.74	253.74
1.9164	255.80	255.80
1.9164	259.91	259.91
1.9164	265.87	265.87
1.9164	267.37	267.37
1.9164	271.69	271.69
1.9164	277.43	277.43
1.9164	279.43	279.43
1.9164	283.19	283.19
1.9164	289.03	289.03
1.9164	291.95	291.95
1.9164	294.98	294.98
1.9478	57.349	57.349
1.9478	73.960	73.960
1.9478	83.705	83.705
1.9478	91.336	91.336
1.9478	97.833	97.833
1.9478	103.61	103.61
1.9478	108.87	108.87
1.9478	113.71	113.71
1.9478	118.31	118.31
1.9478	122.95	122.95
1.9478	124.23	124.23
1.9478	127.94	127.94
1.9478	133.39	133.39
1.9478	139.27	139.27
1.9478	145.54	145.54
1.9478	151.63	151.63
1.9478	152.17	152.17
1.9478	159.11	159.11
1.9478	166.29	166.29
1.9478	168.89	168.89
1.9478	173.68	173.68
1.9478	181.26	181.26
1.9478	182.63	182.63
1.9478	189.09	189.09
1.9478	194.08	194.08
1.9478	197.28	197.28
1.9478	204.25	204.25
1.9478	205.94	205.94
1.9478	213.35	213.35
1.9478	215.09	215.09
1.9478	221.45	221.45
1.9478	224.72	224.72
1.9478	228.33	228.33
1.9478	233.78	233.78
1.9478	234.83	234.83
1.9478	239.47	239.47
1.9478	245.41	245.41
1.9478	245.76	245.76
1.9478	252.06	252.06
1.9478	256.48	256.48
1.9478	258.18	258.18
1.9478	264.11	264.11
1.9478	268.05	268.05
1.9478	269.88	269.88
1.9478	275.60	275.60
1.9478	280.13	280.13
1.9478	281.34	281.34
1.9478	287.16	287.16
1.9478	292.73	292.73
1.9478	293.10	293.10
1.9792	58.140	58.140
1.9792	74.932	74.932
1.9792	84.782	84.782
1.9792	92.495	92.495
1.9792	99.060	99.060
1.9792	104.90	104.90
1.9792	110.20	110.20
1.9792	115.09	115.09
1.9792	119.71	119.71
1.9792	123.24	123.24
1.9792	124.33	124.33
1.9792	129.27	129.27
1.9792	134.64	134.64
1.9792	140.46	140.46
1.9792	146.67	146.67
1.9792	150.54	150.54
1.9792	153.23	153.23
1.9792	160.10	160.10
1.9792	167.23	167.23
1.9792	167.70	167.70
1.9792	174.56	174.56
1.9792	181.35	181.35
1.9792	182.09	182.09
1.9792	189.88	189.88
1.9792	192.73	192.73
1.9792	198.05	198.05
1.9792	202.83	202.83
1.9792	206.68	206.68
1.9792	211.88	211.88
1.9792	215.81	215.81
1.9792	219.95	219.95
1.9792	225.43	225.43
1.9792	226.85	226.85
1.9792	232.36	232.36
1.9792	235.53	235.53
1.9792	237.95	237.95
1.9792	244.15	244.15
1.9792	246.10	246.10
1.9792	250.39	250.39
1.9792	256.46	256.46
1.9792	257.16	257.16
1.9792	262.34	262.34
1.9792	268.08	268.08
1.9792	268.73	268.73
1.9792	273.77	273.77
1.9792	279.49	279.49
1.9792	280.83	280.83
1.9792	285.29	285.29
1.9792	291.22	291.22
1.9792	293.47	293.47
2.0106	58.931	58.931
2.0106	75.905	75.905
2.0106	85.858	85.858
2.0106	93.654	93.654
2.0106	100.28	100.28
2.0106	106.18	106.18
2.0106	111.54	111.54
2.0106	116.47	116.47
2.0106	121.11	121.11
2.0106	122.25	122.25
2.0106	125.72	125.72
2.0106	130.60	130.60
2.0106	135.91	135.91
2.0106	141.66	141.66
2.0106	147.81	147.81
2.0106	149.45	149.45
2.0106	154.31	154.31
2.0106	161.12	161.12
2.0106	166.51	166.51
2.0106	168.18	168.18
2.0106	175.46	175.46
2.0106	180.06	180.06
2.0106	182.93	182.93
2.0106	190.68	190.68
2.0106	191.38	191.38
2.0106	198.82	198.82
2.0106	201.42	201.42
2.0106	207.43	207.43
2.0106	210.41	210.41
2.0106	216.55	216.55
2.0106	218.45	218.45
2.0106	225.37	225.37
2.0106	226.15	226.15
2.0106	230.93	230.93
2.0106	236.23	236.23
2.0106	236.43	236.43
2.0106	242.54	242.54
2.0106	246.79	246.79
2.0106	248.72	248.72
2.0106	254.74	254.74
2.0106	257.84	257.84
2.0106	260.58	260.58
2.0106	266.29	266.29
2.0106	269.41	269.41
2.0106	271.95	271.95
2.0106	277.64	277.64
2.0106	281.52	281.52
2.0106	283.43	283.43
2.0106	289.35	289.35
2.0106	294.20	294.20
2.0420	59.724	59.724
2.0420	76.877	76.877
2.0420	86.934	86.934
2.0420	94.811	94.811
2.0420	101.51	101.51
2.0420	107.46	107.46
2.0420	112.87	112.87
2.0420	117.85	117.85
2.0420	121.26	121.26
2.0420	122.52	122.52
2.0420	127.12	127.12
2.0420	131.95	131.95
2.0420	137.20	137.20
2.0420	142.88	142.88
2.0420	148.36	148.36
2.0420	148.96	148.96
2.0420	155.40	155.40
2.0420	162.15	162.15
2.0420	165.31	165.31
2.0420	169.15	169.15
2.0420	176.36	176.36
2.0420	178.78	178.78
2.0420	183.78	183.78
2.0420	190.03	190.03
2.0420	191.49	191.49
2.0420	199.60	199.60
2.0420	200.01	200.01
2.0420	208.20	208.20
2.0420	208.95	208.95
2.0420	216.95	216.95
2.0420	217.29	217.29
2.0420	223.89	223.89
2.0420	226.87	226.87
2.0420	229.50	229.50
2.0420	234.93	234.93
2.0420	236.93	236.93
2.0420	240.94	240.94
2.0420	247.05	247.05
2.0420	247.48	247.48
2.0420	253.03	253.03
2.0420	258.52	258.52
2.0420	258.83	258.83
2.0420	264.50	264.50
2.0420	270.09	270.09
2.0420	270.13	270.13
2.0420	275.81	275.81
2.0420	281.58	281.58
2.0420	282.21	282.21
2.0420	287.49	287.49
2.0420	293.56	293.56
2.0735	60.518	60.518
2.0735	77.849	77.849
2.0735	88.009	88.009
2.0735	95.967	95.967
2.0735	102.73	102.73
2.0735	108.74	108.74
2.0735	114.20	114.20
2.0735	119.22	119.22
2.0735	120.28	120.28
2.0735	123.93	123.93
2.0735	128.52	128.52
2.0735	133.31	133.31
2.0735	138.50	138.50
2.0735	144.11	144.11
2.0735	147.27	147.27
2.0735	150.13	150.13
2.0735	156.50	156.50
2.0735	163.19	163.19
2.0735	164.12	164.12
2.0735	170.13	170.13
2.0735	177.28	177.28
2.0735	177.51	177.51
2.0735	184.65	184.65
2.0735	188.68	188.68
2.0735	192.32	192.32
2.0735	198.60	198.60
2.0735	200.40	200.40
2.0735	207.48	207.48
2.0735	208.97	208.97
2.0735	215.45	215.45
2.0735	218.04	218.04
2.0735	222.40	222.40
2.0735	227.60	227.60
2.0735	228.06	228.06
2.0735	233.43	233.43
2.0735	237.65	237.65
2.0735	239.34	239.34
2.0735	245.39	245.39
2.0735	248.18	248.18
2.0735	251.32	251.32
2.0735	257.08	257.08
2.0735	259.21	259.21
2.0735	262.72	262.72
2.0735	268.32	268.32
2.0735	270.77	270.77
2.0735	273.97	273.97
2.0735	279.73	279.73
2.0735	282.89	282.89
2.0735	285.63	285.63
2.0735	291.70	291.70
2.1049	61.314	61.314
2.1049	78.821	78.821
2.1049	89.084	89.084
2.1049	97.123	97.123
2.1049	103.95	103.95
2.1049	110.02	110.02
2.1049	115.53	115.53
2.1049	119.29	119.29
2.1049	120.60	120.60
2.1049	125.34	125.34
2.1049	129.93	129.93
2.1049	134.68	134.68
2.1049	139.81	139.81
2.1049	145.36	145.36
2.1049	146.18	146.18
2.1049	151.32	151.32
2.1049	157.62	157.62
2.1049	162.93	162.93
2.1049	164.24	164.24
2.1049	171.12	171.12
2.1049	176.23	176.23
2.1049	178.21	178.21
2.1049	185.53	185.53
2.1049	187.34	187.34
2.1049	193.16	193.16
2.1049	197.19	197.19
2.1049	201.21	201.21
2.1049	206.02	206.02
2.1049	209.75	209.75
2.1049	213.96	213.96
2.1049	218.80	218.80
2.1049	220.91	220.91
2.1049	226.62	226.62
2.1049	228.34	228.34
2.1049	231.94	231.94
2.1049	237.76	237.76
2.1049	238.37	238.37
2.1049	243.74	243.74
2.1049	248.88	248.88
2.1049	249.62	249.62
2.1049	255.33	255.33
2.1049	259.90	259.90
2.1049	260.94	260.94
2.1049	266.51	266.51
2.1049	271.45	271.45
2.1049	272.15	272.15
2.1049	277.89	277.89
2.1049	283.57	283.57
2.1049	283.79	283.79
2.1049	289.85	289.85
2.1363	62.111	62.111
2.1363	79.793	79.793
2.1363	90.158	90.158
2.1363	98.278	98.278
2.1363	105.17	105.17
2.1363	111.30	111.30
2.1363	116.86	116.86
2.1363	118.32	118.32
2.1363	121.97	121.97
2.1363	126.75	126.75
2.1363	131.35	131.35
2.1363	136.07	136.07
2.1363	141.14	141.14
2.1363	145.10	145.10
2.1363	146.63	146.63
2.1363	152.51	152.51
2.1363	158.76	158.76
2.1363	161.75	161.75
2.1363	165.31	165.31
2.1363	172.12	172.12
2.1363	174.95	174.95
2.1363	179.15	179.15
2.1363	185.99	185.99
2.1363	186.42	186.42
2.1363	194.01	194.01
2.1363	195.78	195.78
2.1363	202.03	202.03
2.1363	204.57	204.57
2.1363	210.55	210.55
2.1363	212.46	212.46
2.1363	219.41	219.41
2.1363	219.57	219.57
2.1363	225.18	225.18
2.1363	229.09	229.09
2.1363	230.45	230.45
2.1363	236.18	236.18
2.1363	239.10	239.10
2.1363	242.09	242.09
2.1363	247.92	247.92
2.1363	249.59	249.59
2.1363	253.59	253.59
2.1363	259.16	259.16
2.1363	260.60	260.60
2.1363	264.71	264.71
2.1363	270.33	270.33
2.1363	272.14	272.14
2.1363	276.06	276.06
2.1363	281.95	281.95
2.1363	284.26	284.26
2.1363	288.01	288.01
2.1677	62.909	62.909
2.1677	80.766	80.766
2.1677	91.232	91.232
2.1677	99.432	99.432
2.1677	106.39	106.39
2.1677	112.58	112.58
2.1677	117.34	117.34
2.1677	118.19	118.19
2.1677	123.35	123.35
2.1677	128.16	128.16
2.1677	132.77	132.77
2.1677	137.46	137.46
2.1677	142.48	142.48
2.1677	144.01	144.01
2.1677	147.91	147.91
2.1677	153.73	153.73
2.1677	159.91	159.91
2.1677	160.56	160.56
2.1677	166.40	166.40
2.1677	173.14	173.14
2.1677	173.68	173.68
2.1677	180.11	180.11
2.1677	184.65	184.65
2.1677	187.32	187.32
2.1677	194.38	194.38
2.1677	194.87	194.87
2.1677	202.86	202.86
2.1677	203.11	203.11
2.1677	210.97	210.97
2.1677	211.36	211.36
2.1677	217.92	217.92
2.1677	220.36	220.36
2.1677	223.73	223.73
2.1677	228.98	228.98
2.1677	229.85	229.85
2.1677	234.61	234.61
2.1677	239.83	239.83
2.1677	240.45	240.45
2.1677	246.22	246.22
2.1677	250.31	250.31
2.1677	251.86	251.86
2.1677	257.39	257.39
2.1677	261.30	261.30
2.1677	262.92	262.92
2.1677	268.52	268.52
2.1677	272.83	272.83
2.1677	274.24	274.24
2.1677	280.12	280.12
2.1677	284.94	284.94
2.1677	286.18	286.18
2.1991	63.709	63.709
2.1991	81.738	81.738
2.1991	92.306	92.306
2.1991	100.59	100.59
2.1991	107.61	107.61
2.1991	113.85	113.85
2.1991	116.37	116.37
2.1991	119.51	119.51
2.1991	124.72	124.72
2.1991	129.57	129.57
2.1991	134.20	134.20
2.1991	138.86	138.86
2.1991	142.93	142.93
2.1991	143.83	143.83
2.1991	149.20	149.20
2.1991	154.96	154.96
2.1991	159.37	159.37
2.1991	161.07	161.07
2.1991	167.49	167.49
2.1991	172.41	172.41
2.1991	174.17	174.17
2.1991	181.08	181.08
2.1991	183.31	183.31
2.1991	188.24	188.24
2.1991	192.98	192.98
2.1991	195.75	195.75
2.1991	201.66	201.66
2.1991	203.71	203.71
2.1991	209.48	209.48
2.1991	212.18	212.18
2.1991	216.42	216.42
2.1991	221.15	221.15
2.1991	222.28	222.28
2.1991	227.50	227.50
2.1991	230.62	230.62
2.1991	233.05	233.05
2.1991	238.82	238.82
2.1991	240.58	240.58
2.1991	244.54	244.54
2.1991	250.13	250.13
2.1991	251.04	251.04
2.1991	255.63	255.63
2.1991	261.13	261.13
2.1991	262.01	262.01
2.1991	266.71	266.71
2.1991	272.42	272.42
2.1991	273.53	273.53
2.1991	278.30	278.30
2.1991	284.37	284.37
2.1991	285.63	285.63
2.2305	64.511	64.511
2.2305	82.711	82.711
2.2305	93.380	93.380
2.2305	101.74	101.74
2.2305	108.83	108.83
2.2305	115.13	115.13
2.2305	115.40	115.40
2.2305	120.84	120.84
2.2305	126.09	126.09
2.2305	130.98	130.98
2.2305	135.63	135.63
2.2305	140.28	140.28
2.2305	141.85	141.85
2.2305	145.20	145.20
2.2305	150.50	150.50
2.2305	156.20	156.20
2.2305	158.19	158.19
2.2305	162.25	162.25
2.2305	168.61	168.61
2.2305	171.14	171.14
2.2305	175.22	175.22
2.2305	181.97	181.97
2.2305	182.06	182.06
2.2305	189.17	189.17
2.2305	191.58	191.58
2.2305	196.64	196.64
2.2305	200.21	200.21
2.2305	204.57	204.57
2.2305	207.99	207.99
2.2305	213.01	213.01
2.2305	214.92	214.92
2.2305	220.82	220.82
2.2305	221.96	221.96
2.2305	226.04	226.04
2.2305	231.40	231.40
2.2305	231.49	231.49
2.2305	237.19	237.19
2.2305	241.34	241.34
2.2305	242.85	242.85
2.2305	248.40	248.40
2.2305	251.77	251.77
2.2305	253.87	253.87
2.2305	259.35	259.35
2.2305	262.73	262.73
2.2305	264.91	264.91
2.2305	270.62	270.62
2.2305	274.23	274.23
2.2305	276.49	276.49
2.2305	282.56	282.56
2.2305	286.33	286.33
2.2619	65.314	65.314
2.2619	83.685	83.685
2.2619	94.454	94.454
2.2619	102.89	102.89
2.2619	110.05	110.05
2.2619	114.43	114.43
2.2619	116.40	116.40
2.2619	122.17	122.17
2.2619	127.46	127.46
2.2619	132.39	132.39
2.2619	137.06	137.06
2.2619	140.77	140.77
2.2619	141.70	141.70
2.2619	146.57	146.57
2.2619	151.82	151.82
2.2619	157.01	157.01
2.2619	157.46	157.46
2.2619	163.44	163.44
2.2619	169.73	169.73
2.2619	169.87	169.87
2.2619	176.28	176.28
2.2619	180.64	180.64
2.2619	183.06	183.06
2.2619	190.11	190.11
2.2619	190.19	190.19
2.2619	197.55	197.55
2.2619	198.76	198.76
2.2619	205.45	205.45
2.2619	206.51	206.51
2.2619	213.42	213.42
2.2619	213.86	213.86
2.2619	219.36	219.36
2.2619	222.77	222.77
2.2619	224.57	224.57
2.2619	229.95	229.95
2.2619	232.19	232.19
2.2619	235.57	235.57
2.2619	241.18	241.18
2.2619	242.10	242.10
2.2619	246.68	246.68
2.2619	252.12	252.12
2.2619	252.51	252.51
2.2619	257.58	257.58
2.2619	263.12	263.12
2.2619	263.45	263.45
2.2619	268.82	268.82
2.2619	274.69	274.69
2.2619	274.94	274.94
2.2619	280.77	280.77
2.2619	287.02	287.02
2.2934	66.119	66.119
2.2934	84.659	84.659
2.2934	95.528	95.528
2.2934	104.05	104.05
2.2934	111.27	111.27
2.2934	113.47	113.47
2.2934	117.68	117.68
2.2934	123.49	123.49
2.2934	128.84	128.84
2.2934	133.80	133.80
2.2934	138.50	138.50
2.2934	139.69	139.69
2.2934	143.13	143.13
2.2934	147.96	147.96
2.2934	153.16	153.16
2.2934	155.83	155.83
2.2934	158.73	158.73
2.2934	164.65	164.65
2.2934	168.61	168.61
2.2934	170.87	170.87
2.2934	177.35	177.35
2.2934	179.31	179.31
2.2934	184.07	184.07
2.2934	188.80	188.80
2.2934	191.07	191.07
2.2934	197.32	197.32
2.2934	198.47	198.47
2.2934	205.02	205.02
2.2934	206.33	206.33
2.2934	211.93	211.93
2.2934	214.71	214.71
2.2934	217.89	217.89
2.2934	223.11	223.11
2.2934	223.60	223.60
2.2934	228.41	228.41
2.2934	232.99	232.99
2.2934	233.96	233.96
2.2934	239.51	239.51
2.2934	242.88	242.88
2.2934	244.97	244.97
2.2934	250.38	250.38
2.2934	253.26	253.26
2.2934	255.81	255.81
2.2934	261.34	261.34
2.2934	264.18	264.18
2.2934	267.03	267.03
2.2934	272.90	272.90
2.2934	275.65	275.65
2.2934	278.98	278.98
2.2934	285.33	285.33
2.3248	66.925	66.925
2.3248	85.634	85.634
2.3248	96.602	96.602
2.3248	105.20	105.20
2.3248	112.49	112.49
2.3248	112.51	112.51
2.3248	118.95	118.95
2.3248	124.82	124.82
2.3248	130.21	130.21
2.3248	135.21	135.21
2.3248	138.61	138.61
2.3248	139.94	139.94
2.3248	144.56	144.56
2.3248	149.36	149.36
2.3248	154.50	154.50
2.3248	154.65	154.65
2.3248	160.02	160.02
2.3248	165.87	165.87
2.3248	167.35	167.35
2.3248	172.03	172.03
2.3248	177.98	177.98
2.3248	178.44	178.44
2.3248	185.09	185.09
2.3248	187.41	187.41
2.3248	192.05	192.05
2.3248	195.88	195.88
2.3248	199.40	199.40
2.3248	203.54	203.54
2.3248	207.24	207.24
2.3248	210.43	210.43
2.3248	215.59	215.59
2.3248	216.42	216.42
2.3248	221.65	221.65
2.3248	224.44	224.44
2.3248	226.88	226.88
2.3248	232.35	232.35
2.3248	233.80	233.80
2.3248	237.85	237.85
2.3248	243.27	243.27
2.3248	243.66	243.66
2.3248	248.64	248.64
2.3248	254.02	254.02
2.3248	254.05	254.05
2.3248	259.57	259.57
2.3248	264.92	264.92
2.3248	265.25	265.25
2.3248	271.12	271.12
2.3248	276.37	276.37
2.3248	277.21	277.21
2.3248	283.58	283.58
2.3562	67.734	67.734
2.3562	86.609	86.609
2.3562	97.677	97.677
2.3562	106.35	106.35
2.3562	111.55	111.55
2.3562	113.71	113.71
2.3562	120.23	120.23
2.3562	126.14	126.14
2.3562	131.58	131.58
2.3562	136.62	136.62
2.3562	137.54	137.54
2.3562	141.38	141.38
2.3562	146.01	146.01
2.3562	150.77	150.77
2.3562	153.48	153.48
2.3562	155.86	155.86
2.3562	161.32	161.32
2.3562	166.09	166.09
2.3562	167.11	167.11
2.3562	173.20	173.20
2.3562	176.65	176.65
2.3562	179.54	179.54
2.3562	186.02	186.02
2.3562	186.13	186.13
2.3562	193.04	193.04
2.3562	194.44	194.44
2.3562	200.35	200.35
2.3562	202.07	202.07
2.3562	208.15	208.15
2.3562	208.93	208.93
2.3562	214.94	214.94
2.3562	216.47	216.47
2.3562	220.19	220.19
2.3562	225.30	225.30
2.3562	225.36	225.36
2.3562	230.75	230.75
2.3562	234.63	234.63
2.3562	236.19	236.19
2.3562	241.57	241.57
2.3562	244.46	244.46
2.3562	246.91	246.91
2.3562	252.29	252.29
2.3562	254.79	254.79
2.3562	257.80	257.80
2.3562	263.47	263.47
2.3562	265.67	265.67
2.3562	269.35	269.35
2.3562	275.45	275.45
2.3562	277.10	277.10
2.3562	281.84	281.84
2.3876	68.545	68.545
2.3876	87.585	87.585
2.3876	98.752	98.752
2.3876	107.51	107.51
2.3876	110.60	110.60
2.3876	114.93	114.93
2.3876	121.50	121.50
2.3876	127.47	127.47
2.3876	132.95	132.95
2.3876	136.46	136.46
2.3876	138.04	138.04
2.3876	142.82	142.82
2.3876	147.46	147.46
2.3876	152.20	152.20
2.3876	152.30	152.30
2.3876	157.23	157.23
2.3876	162.63	162.63
2.3876	164.83	164.83
2.3876	168.36	168.36
2.3876	174.38	174.38
2.3876	175.33	175.33
2.3876	180.66	180.66
2.3876	184.64	184.64
2.3876	187.19	187.19
2.3876	193.01	193.01
2.3876	194.04	194.04
2.3876	200.59	200.59
2.3876	201.31	201.31
2.3876	207.43	207.43
2.3876	209.08	209.08
2.3876	213.46	213.46
2.3876	217.37	217.37
2.3876	218.73	218.73
2.3876	223.84	223.84
2.3876	226.17	226.17
2.3876	229.16	229.16
2.3876	234.54	234.54
2.3876	235.46	235.46
2.3876	239.87	239.87
2.3876	245.18	245.18
2.3876	245.26	245.26
2.3876	250.55	250.55
2.3876	255.57	255.57
2.3876	256.04	256.04
2.3876	261.71	261.71
2.3876	266.42	266.42
2.3876	267.59	267.59
2.3876	273.71	273.71
2.3876	277.84	277.84
2.3876	280.11	280.11
2.4190	69.357	69.357
2.4190	88.562	88.562
2.4190	99.828	99.828
2.4190	108.66	108.66
2.4190	109.65	109.65
2.4190	116.15	116.15
2.4190	122.78	122.78
2.4190	128.79	128.79
2.4190	134.32	134.32
2.4190	135.39	135.39
2.4190	139.45	139.45
2.4190	144.26	144.26
2.4190	148.91	148.91
2.4190	151.13	151.13
2.4190	153.63	153.63
2.4190	158.62	158.62
2.4190	163.58	163.58
2.4190	163.95	163.95
2.4190	169.62	169.62
2.4190	174.01	174.01
2.4190	175.57	175.57
2.4190	181.78	181.78
2.4190	183.26	183.26
2.4190	188.25	188.25
2.4190	191.58	191.58
2.4190	195.06	195.06
2.4190	199.12	199.12
2.4190	202.29	202.29
2.4190	205.94	205.94
2.4190	210.03	210.03
2.4190	211.98	211.98
2.4190	217.27	217.27
2.4190	218.28	218.28
2.4190	222.34	222.34
2.4190	227.05	227.05
2.4190	227.58	227.58
2.4190	232.90	232.90
2.4190	236.31	236.31
2.4190	238.19	238.19
2.4190	243.46	243.46
2.4190	246.08	246.08
2.4190	248.81	248.81
2.4190	254.29	254.29
2.4190	256.36	256.36
2.4190	259.96	259.96
2.4190	265.84	265.84
2.4190	267.19	267.19
2.4190	271.97	271.97
2.4190	278.40	278.40
2.4190	278.58	278.58
2.4504	70.172	70.172
2.4504	89.540	89.540
2.4504	100.90	100.90
2.4504	108.70	108.70
2.4504	109.82	109.82
2.4504	117.36	117.36
2.4504	124.05	124.05
2.4504	130.12	130.12
2.4504	134.32	134.32
2.4504	135.69	135.69
2.4504	140.86	140.86
2.4504	145.71	145.71
2.4504	149.97	149.97
2.4504	150.37	150.37
2.4504	155.06	155.06
2.4504	160.01	160.01
2.4504	162.33	162.33
2.4504	165.29	165.29
2.4504	170.90	170.90
2.4504	172.69	172.69
2.4504	176.78	176.78
2.4504	181.88	181.88
2.4504	182.93	182.93
2.4504	189.34	189.34
2.4504	190.15	190.15
2.4504	196.09	196.09
2.4504	197.65	197.65
2.4504	203.29	203.29
2.4504	204.45	204.45
2.4504	210.49	210.49
2.4504	210.99	210.99
2.4504	215.80	215.80
2.4504	219.21	219.21
2.4504	220.83	220.83
2.4504	226.01	226.01
2.4504	227.94	227.94
2.4504	231.26	231.26
2.4504	236.51	236.51
2.4504	237.17	237.17
2.4504	241.75	241.75
2.4504	246.91	246.91
2.4504	247.08	247.08
2.4504	252.55	252.55
2.4504	257.16	257.16
2.4504	258.22	258.22
2.4504	264.11	264.11
2.4504	267.96	267.96
2.4504	270.25	270.25
2.4504	276.70	276.70
2.4504	279.33	279.33
2.4819	70.988	70.988
2.4819	90.519	90.519
2.4819	101.98	101.98
2.4819	107.76	107.76
2.4819	110.97	110.97
2.4819	118.58	118.58
2.4819	125.33	125.33
2.4819	131.44	131.44
2.4819	133.26	133.26
2.4819	137.06	137.06
2.4819	142.27	142.27
2.4819	147.15	147.15
2.4819	148.80	148.80
2.4819	151.83	151.83
2.4819	156.51	156.51
2.4819	161.08	161.08
2.4819	161.42	161.42
2.4819	166.64	166.64
2.4819	171.38	171.38
2.4819	172.18	172.18
2.4819	178.01	178.01
2.4819	180.51	180.51
2.4819	184.08	184.08
2.4819	188.73	188.73
2.4819	190.43	190.43
2.4819	196.18	196.18
2.4819	197.14	197.14
2.4819	202.95	202.95
2.4819	204.30	204.30
2.4819	209.00	209.00
2.4819	211.97	211.97
2.4819	214.34	214.34
2.4819	219.34	219.34
2.4819	220.15	220.15
2.4819	224.44	224.44
2.4819	228.85	228.85
2.4819	229.64	229.64
2.4819	234.83	234.83
2.4819	238.04	238.04
2.4819	240.05	240.05
2.4819	245.36	245.36
2.4819	247.75	247.75
2.4819	250.82	250.82
2.4819	256.49	256.49
2.4819	257.97	257.97
2.4819	262.38	262.38
2.4819	268.55	268.55
2.4819	268.75	268.75
2.4819	275.02	275.02
2.4819	280.10	280.10
2.5133	71.807	71.807
2.5133	91.499	91.499
2.5133	103.06	103.06
2.5133	106.82	106.82
2.5133	112.13	112.13
2.5133	119.80	119.80
2.5133	126.61	126.61
2.5133	132.20	132.20
2.5133	132.77	132.77
2.5133	138.43	138.43
2.5133	143.68	143.68
2.5133	147.64	147.64
2.5133	148.60	148.60
2.5133	153.30	153.30
2.5133	157.97	157.97
2.5133	159.84	159.84
2.5133	162.83	162.83
2.5133	168.01	168.01
2.5133	170.07	170.07
2.5133	173.49	173.49
2.5133	179.14	179.14
2.5133	179.24	179.24
2.5133	185.25	185.25
2.5133	187.31	187.31
2.5133	191.54	191.54
2.5133	194.72	194.72
2.5133	198.21	198.21
2.5133	201.46	201.46
2.5133	205.33	205.33
2.5133	207.51	207.51
2.5133	212.87	212.87
2.5133	212.96	212.96
2.5133	217.85	217.85
2.5133	221.11	221.11
2.5133	222.88	222.88
2.5133	228.02	228.02
2.5133	229.77	229.77
2.5133	233.17	233.17
2.5133	238.36	238.36
2.5133	238.93	238.93
2.5133	243.65	243.65
2.5133	248.60	248.60
2.5133	249.10	249.10
2.5133	254.77	254.77
2.5133	258.80	258.80
2.5133	260.67	260.67
2.5133	266.85	266.85
2.5133	269.54	269.54
2.5133	273.36	273.36
2.5133	280.24	280.24
2.5447	72.628	72.628
2.5447	92.480	92.480
2.5447	104.14	104.14
2.5447	105.88	105.88
2.5447	113.29	113.29
2.5447	121.03	121.03
2.5447	127.88	127.88
2.5447	131.13	131.13
2.5447	134.10	134.10
2.5447	139.80	139.80
2.5447	145.10	145.10
2.5447	146.47	146.47
2.5447	150.05	150.05
2.5447	154.76	154.76
2.5447	158.59	158.59
2.5447	159.43	159.43
2.5447	164.26	164.26
2.5447	168.76	168.76
2.5447	169.38	169.38
2.5447	174.80	174.80
2.5447	177.77	177.77
2.5447	180.49	180.49
2.5447	185.89	185.89
2.5447	186.43	186.43
2.5447	192.67	192.67
2.5447	193.26	193.26
2.5447	199.29	199.29
2.5447	199.97	199.97
2.5447	206.02	206.02
2.5447	206.37	206.37
2.5447	211.39	211.39
2.5447	213.97	213.97
2.5447	216.36	216.36
2.5447	221.33	221.33
2.5447	222.08	222.08
2.5447	226.41	226.41
2.5447	230.70	230.70
2.5447	231.51	231.51
2.5447	236.67	236.67
2.5447	239.83	239.83
2.5447	241.94	241.94
2.5447	247.39	247.39
2.5447	249.47	249.47
2.5447	253.06	253.06
2.5447	258.98	258.98
2.5447	259.63	259.63
2.5447	265.18	265.18
2.5447	270.35	270.35
2.5447	271.71	271.71
2.5447	278.63	278.63
2.5761	73.451	73.451
2.5761	93.463	93.463
2.5761	104.95	104.95
2.5761	105.22	105.22
2.5761	114.44	114.44
2.5761	122.25	122.25
2.5761	129.16	129.16
2.5761	130.07	130.07
2.5761	135.42	135.42
2.5761	141.18	141.18
2.5761	145.32	145.32
2.5761	146.51	146.51
2.5761	151.50	151.50
2.5761	156.24	156.24
2.5761	157.35	157.35
2.5761	160.90	160.90
2.5761	165.70	165.70
2.5761	167.46	167.46
2.5761	170.77	170.77
2.5761	176.13	176.13
2.5761	176.41	176.41
2.5761	181.75	181.75
2.5761	184.47	184.47
2.5761	187.63	187.63
2.5761	191.81	191.81
2.5761	193.81	193.81
2.5761	198.49	198.49
2.5761	200.39	200.39
2.5761	204.53	204.53
2.5761	207.44	207.44
2.5761	209.92	209.92
2.5761	214.87	214.87
2.5761	215.00	215.00
2.5761	219.79	219.79
2.5761	223.07	223.07
2.5761	224.80	224.80
2.5761	229.86	229.86
2.5761	231.65	231.65
2.5761	234.99	234.99
2.5761	240.25	240.25
2.5761	240.74	240.74
2.5761	245.69	245.69
2.5761	250.34	250.34
2.5761	251.36	251.36
2.5761	257.29	257.29
2.5761	260.48	260.48
2.5761	263.51	263.51
2.5761	270.08	270.08
2.5761	271.16	271.16
2.5761	277.04	277.04
2.6075	74.277	74.277
2.6075	94.446	94.446
2.6075	104.02	104.02
2.6075	106.30	106.30
2.6075	115.60	115.60
2.6075	123.47	123.47
2.6075	129.02	129.02
2.6075	130.44	130.44
2.6075	136.75	136.75
2.6075	142.55	142.55
2.6075	144.16	144.16
2.6075	147.92	147.92
2.6075	152.95	152.95
2.6075	156.12	156.12
2.6075	157.71	157.71
2.6075	162.37	162.37
2.6075	166.15	166.15
2.6075	167.14	167.14
2.6075	172.16	172.16
2.6075	175.05	175.05
2.6075	177.46	177.46
2.6075	183.02	183.02
2.6075	183.06	183.06
2.6075	188.84	188.84
2.6075	190.35	190.35
2.6075	194.97	194.97
2.6075	197.00	197.00
2.6075	201.50	201.50
2.6075	203.03	203.03
2.6075	208.44	208.44
2.6075	208.51	208.51
2.6075	213.39	213.39
2.6075	216.04	216.04
2.6075	218.25	218.25
2.6075	223.21	223.21
2.6075	224.07	224.07
2.6075	228.22	228.22
2.6075	232.62	232.62
2.6075	233.32	233.32
2.6075	238.56	238.56
2.6075	241.67	241.67
2.6075	244.00	244.00
2.6075	249.68	249.68
2.6075	251.23	251.23
2.6075	255.62	255.62
2.6075	261.33	261.33
2.6075	261.86	261.86
2.6075	268.46	268.46
2.6075	271.99	271.99
2.6075	275.46	275.46
2.6389	75.105	75.105
2.6389	95.431	95.431
2.6389	103.09	103.09
2.6389	107.38	107.38
2.6389	116.76	116.76
2.6389	124.69	124.69
2.6389	127.96	127.96
2.6389	131.72	131.72
2.6389	138.08	138.08
2.6389	143.01	143.01
2.6389	143.92	143.92
2.6389	149.34	149.34
2.6389	154.40	154.40
2.6389	154.88	154.88
2.6389	159.19	159.19
2.6389	163.85	163.85
2.6389	164.85	164.85
2.6389	168.60	168.60
2.6389	173.57	173.57
2.6389	173.69	173.69
2.6389	178.81	178.81
2.6389	181.66	181.66
2.6389	184.31	184.31
2.6389	188.90	188.90
2.6389	190.07	190.07
2.6389	195.52	195.52
2.6389	196.14	196.14
2.6389	201.54	201.54
2.6389	202.63	202.63
2.6389	206.95	206.95
2.6389	209.61	209.61
2.6389	211.90	211.90
2.6389	216.72	216.72
2.6389	217.09	217.09
2.6389	221.62	221.62
2.6389	225.09	225.09
2.6389	226.59	226.59
2.6389	231.66	231.66
2.6389	233.59	233.59
2.6389	236.88	236.88
2.6389	242.32	242.32
2.6389	242.61	242.61
2.6389	248.01	248.01
2.6389	252.14	252.14
2.6389	253.96	253.96
2.6389	260.23	260.23
2.6389	262.20	262.20
2.6389	266.86	266.86
2.6389	272.83	272.83
2.6389	273.90	273.90
2.6704	75.935	75.935
2.6704	96.418	96.418
2.6704	102.17	102.17
2.6704	108.46	108.46
2.6704	117.92	117.92
2.6704	125.92	125.92
2.6704	126.91	126.91
2.6704	133.00	133.00
2.6704	139.41	139.41
2.6704	141.86	141.86
2.6704	145.30	145.30
2.6704	150.75	150.75
2.6704	153.65	153.65
2.6704	155.85	155.85
2.6704	160.66	160.66
2.6704	163.56	163.56
2.6704	165.33	165.33
2.6704	170.06	170.06
2.6704	172.34	172.34
2.6704	174.99	174.99
2.6704	180.17	180.17
2.6704	180.25	180.25
2.6704	185.61	185.61
2.6704	187.45	187.45
2.6704	191.31	191.31
2.6704	194.04	194.04
2.6704	197.33	197.33
2.6704	200.05	200.05
2.6704	203.78	203.78
2.6704	205.46	205.46
2.6704	210.42	210.42
2.6704	210.72	210.72
2.6704	215.20	215.20
2.6704	218.17	218.17
2.6704	220.04	220.04
2.6704	224.96	224.96
2.6704	226.13	226.13
2.6704	230.00	230.00
2.6704	234.59	234.59
2.6704	235.22	235.22
2.6704	240.65	240.65
2.6704	243.56	243.56
2.6704	246.35	246.35
2.6704	252.32	252.32
2.6704	253.05	253.05
2.6704	258.62	258.62
2.6704	263.08	263.08
2.6704	265.28	265.28
2.6704	272.36	272.36
2.6704	273.68	273.68
2.7018	76.768	76.768
2.7018	97.405	97.405
2.7018	101.25	101.25
2.7018	109.55	109.55
2.7018	119.08	119.08
2.7018	125.86	125.86
2.7018	127.14	127.14
2.7018	134.28	134.28
2.7018	140.71	140.71
2.7018	140.74	140.74
2.7018	146.67	146.67
2.7018	152.17	152.17
2.7018	152.42	152.42
2.7018	157.30	157.30
2.7018	162.14	162.14
2.7018	162.27	162.27
2.7018	166.82	166.82
2.7018	170.99	170.99
2.7018	171.53	171.53
2.7018	176.41	176.41
2.7018	178.85	178.85
2.7018	181.55	181.55
2.7018	186.01	186.01
2.7018	186.92	186.92
2.7018	192.56	192.56
2.7018	192.57	192.57
2.7018	198.54	198.54
2.7018	198.55	198.55
2.7018	203.98	203.98
2.7018	204.95	204.95
2.7018	208.93	208.93
2.7018	211.85	211.85
2.7018	213.68	213.68
2.7018	218.47	218.47
2.7018	219.26	219.26
2.7018	223.35	223.35
2.7018	227.18	227.18
2.7018	228.36	228.36
2.7018	233.56	233.56
2.7018	235.60	235.60
2.7018	239.00	239.00
2.7018	244.53	244.53
2.7018	244.70	244.70
2.7018	250.69	250.69
2.7018	253.99	253.99
2.7018	257.01	257.01
2.7018	263.71	263.71
2.7018	263.98	263.98
2.7018	270.84	270.84
2.7018	274.54	274.54
2.7332	77.603	77.603
2.7332	98.395	98.395
2.7332	100.33	100.33
2.7332	110.63	110.63
2.7332	120.25	120.25
2.7332	124.81	124.81
2.7332	128.37	128.37
2.7332	135.57	135.57
2.7332	139.56	139.56
2.7332	142.08	142.08
2.7332	148.05	148.05
2.7332	151.20	151.20
2.7332	153.59	153.59
2.7332	158.75	158.75
2.7332	160.98	160.98
2.7332	163.63	163.63
2.7332	168.31	168.31
2.7332	169.64	169.64
2.7332	173.00	173.00
2.7332	177.45	177.45
2.7332	177.85	177.85
2.7332	182.93	182.93
2.7332	184.57	184.57
2.7332	188.24	188.24
2.7332	191.09	191.09
2.7332	193.83	193.83
2.7332	197.06	197.06
2.7332	199.76	199.76
2.7332	202.48	202.48
2.7332	206.13	206.13
2.7332	207.44	207.44
2.7332	212.17	212.17
2.7332	213.00	213.00
2.7332	216.90	216.90
2.7332	220.37	220.37
2.7332	221.74	221.74
2.7332	226.72	226.72
2.7332	228.24	228.24
2.7332	231.91	231.91
2.7332	236.62	236.62
2.7332	237.35	237.35
2.7332	243.06	243.06
2.7332	245.52	245.52
2.7332	249.08	249.08
2.7332	254.93	254.93
2.7332	255.43	255.43
2.7332	262.17	262.17
2.7332	264.89	264.89
2.7332	269.34	269.34
2.7332	275.41	275.41
2.7646	78.441	78.441
2.7646	99.386	99.386
2.7646	99.417	99.417
2.7646	111.72	111.72
2.7646	121.41	121.41
2.7646	123.77	123.77
2.7646	129.60	129.60
2.7646	136.85	136.85
2.7646	138.42	138.42
2.7646	143.41	143.41
2.7646	149.43	149.43
2.7646	149.98	149.98
2.7646	155.01	155.01
2.7646	159.69	159.69
2.7646	160.21	160.21
2.7646	165.11	165.11
2.7646	168.30	168.30
2.7646	169.81	169.81
2.7646	174.48	174.48
2.7646	176.06	176.06
2.7646	179.29	179.29
2.7646	183.13	183.13
2.7646	184.32	184.32
2.7646	189.57	189.57
2.7646	189.62	189.62
2.7646	195.11	195.11
2.7646	195.57	195.57
2.7646	200.99	200.99
2.7646	201.00	201.00
2.7646	205.95	205.95
2.7646	207.33	207.33
2.7646	210.66	210.66
2.7646	214.16	214.16
2.7646	215.35	215.35
2.7646	220.14	220.14
2.7646	221.49	221.49
2.7646	225.10	225.10
2.7646	229.33	229.33
2.7646	230.28	230.28
2.7646	235.72	235.72
2.7646	237.67	237.67
2.7646	241.44	241.44
2.7646	246.51	246.51
2.7646	247.48	247.48
2.7646	253.86	253.86
2.7646	255.89	255.89
2.7646	260.64	260.64
2.7646	265.81	265.81
2.7646	267.85	267.85
2.7646	275.55	275.55
2.7960	79.281	79.281
2.7960	98.506	98.506
2.7960	100.38	100.38
2.7960	112.81	112.81
2.7960	122.58	122.58
2.7960	122.73	122.73
2.7960	130.83	130.83
2.7960	137.28	137.28
2.7960	138.14	138.14
2.7960	144.75	144.75
2.7960	148.76	148.76
2.7960	150.81	150.81
2.7960	156.43	156.43
2.7960	158.41	158.41
2.7960	161.66	161.66
2.7960	166.59	166.59
2.7960	166.96	166.96
2.7960	171.31	171.31
2.7960	174.67	174.67
2.7960	175.97	175.97
2.7960	180.75	180.75
2.7960	181.70	181.70
2.7960	185.72	185.72
2.7960	188.15	188.15
2.7960	190.92	190.92
2.7960	194.08	194.08
2.7960	196.40	196.40
2.7960	199.49	199.49
2.7960	202.25	202.25
2.7960	204.46	204.46
2.7960	208.55	208.55
2.7960	209.15	209.15
2.7960	213.80	213.80
2.7960	215.35	215.35
2.7960	218.55	218.55
2.7960	222.64	222.64
2.7960	223.49	223.49
2.7960	228.66	228.66
2.7960	230.43	230.43
2.7960	234.10	234.10
2.7960	238.72	238.72
2.7960	239.84	239.84
2.7960	245.89	245.89
2.7960	247.53	247.53
2.7960	252.31	252.31
2.7960	256.86	256.86
2.7960	259.12	259.12
2.7960	266.38	266.38
2.7960	266.74	266.74
2.7960	274.13	274.13
2.8274	80.124	80.124
2.8274	97.600	97.600
2.8274	101.37	101.37
2.8274	113.90	113.90
2.8274	121.69	121.69
2.8274	123.75	123.75
2.8274	132.06	132.06
2.8274	136.14	136.14
2.8274	139.42	139.42
2.8274	146.08	146.08
2.8274	147.54	147.54
2.8274	152.19	152.19
2.8274	157.13	157.13
2.8274	157.85	157.85
2.8274	163.12	163.12
2.8274	165.62	165.62
2.8274	168.08	168.08
2.8274	172.81	172.81
2.8274	173.28	173.28
2.8274	177.46	177.46
2.8274	180.27	180.27
2.8274	182.21	182.21
2.8274	186.68	186.68
2.8274	187.13	187.13
2.8274	192.28	192.28
2.8274	192.59	192.59
2.8274	197.71	197.71
2.8274	198.00	198.00
2.8274	202.96	202.96
2.8274	203.53	203.53
2.8274	207.64	207.64
2.8274	209.79	209.79
2.8274	212.25	212.25
2.8274	216.55	216.55
2.8274	216.97	216.97
2.8274	221.88	221.88
2.8274	223.80	223.80
2.8274	227.04	227.04
2.8274	231.54	231.54
2.8274	232.49	232.49
2.8274	238.24	238.24
2.8274	239.80	239.80
2.8274	244.32	244.32
2.8274	248.56	248.56
2.8274	250.77	250.77
2.8274	257.63	257.63
2.8274	257.85	257.85
2.8274	264.93	264.93
2.8274	267.69	267.69
2.8274	272.73	272.73
2.8588	80.970	80.970
2.8588	96.696	96.696
2.8588	102.37	102.37
2.8588	114.99	114.99
2.8588	120.65	120.65
2.8588	124.91	124.91
2.8588	133.29	133.29
2.8588	135.01	135.01
2.8588	140.71	140.71
2.8588	146.33	146.33
2.8588	147.42	147.42
2.8588	153.57	153.57
2.8588	155.85	155.85
2.8588	159.27	159.27
2.8588	164.28	164.28
2.8588	164.58	164.58
2.8588	169.57	169.57
2.8588	171.89	171.89
2.8588	174.31	174.31
2.8588	178.84	178.84
2.8588	178.96	178.96
2.8588	183.67	183.67
2.8588	185.22	185.22
2.8588	188.55	188.55
2.8588	191.10	191.10
2.8588	193.65	193.65
2.8588	196.50	196.50
2.8588	199.04	199.04
2.8588	201.47	201.47
2.8588	204.82	204.82
2.8588	206.13	206.13
2.8588	210.72	210.72
2.8588	211.05	211.05
2.8588	215.40	215.40
2.8588	217.76	217.76
2.8588	220.29	220.29
2.8588	224.97	224.97
2.8588	225.44	225.44
2.8588	230.90	230.90
2.8588	232.68	232.68
2.8588	236.66	236.66
2.8588	240.89	240.89
2.8588	242.77	242.77
2.8588	249.25	249.25
2.8588	249.61	249.61
2.8588	256.15	256.15
2.8588	258.85	258.85
2.8588	263.50	263.50
2.8588	268.66	268.66
2.8588	271.35	271.35
2.8903	81.818	81.818
2.8903	95.796	95.796
2.8903	103.37	103.37
2.8903	116.09	116.09
2.8903	119.62	119.62
2.8903	126.09	126.09
2.8903	133.88	133.88
2.8903	134.53	134.53
2.8903	142.00	142.00
2.8903	145.12	145.12
2.8903	148.76	148.76
2.8903	154.57	154.57
2.8903	154.96	154.96
2.8903	160.69	160.69
2.8903	162.95	162.95
2.8903	166.04	166.04
2.8903	170.51	170.51
2.8903	171.05	171.05
2.8903	175.82	175.82
2.8903	177.41	177.41
2.8903	180.46	180.46
2.8903	183.76	183.76
2.8903	185.14	185.14
2.8903	189.61	189.61
2.8903	189.97	189.97
2.8903	195.00	195.00
2.8903	195.02	195.02
2.8903	199.97	199.97
2.8903	200.38	200.38
2.8903	204.63	204.63
2.8903	206.12	206.12
2.8903	209.19	209.19
2.8903	212.32	212.32
2.8903	213.84	213.84
2.8903	218.71	218.71
2.8903	219.00	219.00
2.8903	223.86	223.86
2.8903	226.17	226.17
2.8903	229.32	229.32
2.8903	233.83	233.83
2.8903	235.10	235.10
2.8903	241.24	241.24
2.8903	241.99	241.99
2.8903	247.75	247.75
2.8903	250.67	250.67
2.8903	254.69	254.69
2.8903	259.87	259.87
2.8903	262.09	262.09
2.8903	269.63	269.63
2.8903	269.99	269.99
2.9217	82.670	82.670
2.9217	94.899	94.899
2.9217	104.37	104.37
2.9217	117.18	117.18
2.9217	118.58	118.58
2.9217	127.26	127.26
2.9217	132.75	132.75
2.9217	135.76	135.76
2.9217	143.30	143.30
2.9217	143.91	143.91
2.9217	150.10	150.10
2.9217	153.30	153.30
2.9217	156.35	156.35
2.9217	161.62	161.62
2.9217	162.12	162.12
2.9217	167.50	167.50
2.9217	169.13	169.13
2.9217	172.54	172.54
2.9217	175.99	175.99
2.9217	177.33	177.33
2.9217	181.97	181.97
2.9217	182.30	182.30
2.9217	186.62	186.62
2.9217	188.12	188.12
2.9217	191.41	191.41
2.9217	193.50	193.50
2.9217	196.42	196.42
2.9217	198.46	198.46
2.9217	201.73	201.73
2.9217	203.12	203.12
2.9217	207.45	207.45
2.9217	207.66	207.66
2.9217	212.28	212.28
2.9217	213.61	213.61
2.9217	217.14	217.14
2.9217	220.26	220.26
2.9217	222.28	222.28
2.9217	227.38	227.38
2.9217	227.75	227.75
2.9217	233.55	233.55
2.9217	235.00	235.00
2.9217	239.72	239.72
2.9217	243.12	243.12
2.9217	246.27	246.27
2.9217	251.75	251.75
2.9217	253.25	253.25
2.9217	260.70	260.70
2.9217	260.91	260.91
2.9217	268.65	268.65
2.9217	270.63	270.63
2.9531	83.524	83.524
2.9531	94.005	94.005
2.9531	105.37	105.37
2.9531	117.55	117.55
2.9531	118.28	118.28
2.9531	128.43	128.43
2.9531	131.62	131.62
2.9531	137.00	137.00
2.9531	142.70	142.70
2.9531	144.59	144.59
2.9531	151.45	151.45
2.9531	152.03	152.03
2.9531	157.73	157.73
2.9531	160.30	160.30
2.9531	163.55	163.55
2.9531	167.76	167.76
2.9531	168.96	168.96
2.9531	174.03	174.03
2.9531	174.57	174.57
2.9531	178.83	178.83
2.9531	180.84	180.84
2.9531	183.47	183.47
2.9531	186.64	186.64
2.9531	188.10	188.10
2.9531	192.00	192.00
2.9531	192.85	192.85
2.9531	196.96	196.96
2.9531	197.82	197.82
2.9531	201.61	201.61
2.9531	203.10	203.10
2.9531	206.14	206.14
2.9531	208.79	208.79
2.9531	210.74	210.74
2.9531	214.92	214.92
2.9531	215.58	215.58
2.9531	220.72	220.72
2.9531	221.53	221.53
2.9531	226.19	226.19
2.9531	228.61	228.61
2.9531	232.02	232.02
2.9531	236.19	236.19
2.9531	238.21	238.21
2.9531	244.26	244.26
2.9531	244.80	244.80
2.9531	251.83	251.83
2.9531	252.84	252.84
2.9531	259.32	259.32
2.9531	261.96	261.96
2.9531	267.32	267.32
2.9531	271.64	271.64
2.9845	84.381	84.381
2.9845	93.114	93.114
2.9845	106.37	106.37
2.9845	116.52	116.52
2.9845	119.38	119.38
2.9845	129.61	129.61
2.9845	130.50	130.50
2.9845	138.24	138.24
2.9845	141.50	141.50
2.9845	145.89	145.89
2.9845	150.77	150.77
2.9845	152.79	152.79
2.9845	158.97	158.97
2.9845	159.12	159.12
2.9845	164.98	164.98
2.9845	166.38	166.38
2.9845	170.43	170.43
2.9845	173.15	173.15
2.9845	175.53	175.53
2.9845	179.39	179.39
2.9845	180.34	180.34
2.9845	184.98	184.98
2.9845	185.16	185.16
2.9845	189.59	189.59
2.9845	190.50	190.50
2.9845	194.30	194.30
2.9845	195.45	195.45
2.9845	199.23	199.23
2.9845	200.10	200.10
2.9845	204.49	204.49
2.9845	204.62	204.62
2.9845	209.21	209.21
2.9845	210.15	210.15
2.9845	214.03	214.03
2.9845	216.25	216.25
2.9845	219.17	219.17
2.9845	222.82	222.82
2.9845	224.66	224.66
2.9845	229.86	229.86
2.9845	230.50	230.50
2.9845	236.73	236.73
2.9845	237.39	237.39
2.9845	243.36	243.36
2.9845	245.41	245.41
2.9845	250.43	250.43
2.9845	253.95	253.95
2.9845	257.97	257.97
2.9845	263.02	263.02
2.9845	266.02	266.02
2.9845	272.66	272.66
3.0159	85.240	85.240
3.0159	92.227	92.227
3.0159	107.38	107.38
3.0159	115.50	115.50
3.0159	120.48	120.48
3.0159	129.37	129.37
3.0159	130.79	130.79
3.0159	139.48	139.48
3.0159	140.30	140.30
3.0159	147.18	147.18
3.0159	149.50	149.50
3.0159	154.14	154.14
3.0159	157.65	157.65
3.0159	160.52	160.52
3.0159	165.01	165.01
3.0159	166.41	166.41
3.0159	171.74	171.74
3.0159	171.89	171.89
3.0159	177.02	177.02
3.0159	177.94	177.94
3.0159	181.85	181.85
3.0159	183.68	183.68
3.0159	186.49	186.49
3.0159	189.00	189.00
3.0159	191.08	191.08
3.0159	193.94	193.94
3.0159	195.76	195.76
3.0159	198.60	198.60
3.0159	200.66	200.66
3.0159	203.10	203.10
3.0159	205.89	205.89
3.0159	207.68	207.68
3.0159	211.52	211.52
3.0159	212.50	212.50
3.0159	217.60	217.60
3.0159	217.64	217.64
3.0159	223.13	223.13
3.0159	224.13	224.13
3.0159	229.00	229.00
3.0159	231.13	231.13
3.0159	235.26	235.26
3.0159	238.61	238.61
3.0159	241.93	241.93
3.0159	246.59	246.59
3.0159	249.04	249.04
3.0159	255.08	255.08
3.0159	256.63	256.63
3.0159	264.11	264.11
3.0159	264.73	264.73
3.0159	273.37	273.37
3.0473	86.103	86.103
3.0473	91.343	91.343
3.0473	108.38	108.38
3.0473	114.48	114.48
3.0473	121.59	121.59
3.0473	128.25	128.25
3.0473	131.97	131.97
3.0473	139.10	139.10
3.0473	140.73	140.73
3.0473	148.24	148.24
3.0473	148.48	148.48
3.0473	155.49	155.49
3.0473	156.34	156.34
3.0473	161.91	161.91
3.0473	163.64	163.64
3.0473	167.84	167.84
3.0473	170.33	170.33
3.0473	173.36	173.36
3.0473	176.49	176.49
3.0473	178.51	178.51
3.0473	182.20	182.20
3.0473	183.37	183.37
3.0473	187.50	187.50
3.0473	188.01	188.01
3.0473	192.44	192.44
3.0473	192.57	192.57
3.0473	197.08	197.08
3.0473	197.22	197.22
3.0473	201.59	201.59
3.0473	202.10	202.10
3.0473	206.16	206.16
3.0473	207.30	207.30
3.0473	210.97	210.97
3.0473	212.91	212.91
3.0473	216.12	216.12
3.0473	218.96	218.96
3.0473	221.62	221.62
3.0473	225.46	225.46
3.0473	227.51	227.51
3.0473	232.42	232.42
3.0473	233.80	233.80
3.0473	239.85	239.85
3.0473	240.51	240.51
3.0473	247.67	247.67
3.0473	247.78	247.78
3.0473	255.31	255.31
3.0473	256.22	256.22
3.0473	263.46	263.46
3.0473	265.20	265.20
3.0473	272.15	272.15
3.0788	86.969	86.969
3.0788	90.462	90.462
3.0788	109.39	109.39
3.0788	113.46	113.46
3.0788	122.69	122.69
3.0788	127.14	127.14
3.0788	133.15	133.15
3.0788	137.91	137.91
3.0788	141.97	141.97
3.0788	146.98	146.98
3.0788	149.79	149.79
3.0788	155.02	155.02
3.0788	156.85	156.85
3.0788	162.28	162.28
3.0788	163.31	163.31
3.0788	168.92	168.92
3.0788	169.28	169.28
3.0788	174.83	174.83
3.0788	175.04	175.04
3.0788	180.01	180.01
3.0788	180.72	180.72
3.0788	184.88	184.88
3.0788	186.00	186.00
3.0788	189.52	189.52
3.0788	190.93	190.93
3.0788	194.07	194.07
3.0788	195.57	195.57
3.0788	198.70	198.70
3.0788	200.08	200.08
3.0788	203.54	203.54
3.0788	204.65	204.65
3.0788	208.73	208.73
3.0788	209.46	209.46
3.0788	214.32	214.32
3.0788	214.61	214.61
3.0788	220.13	220.13
3.0788	220.34	220.34
3.0788	226.05	226.05
3.0788	226.80	226.80
3.0788	232.37	232.37
3.0788	233.72	233.72
3.0788	239.12	239.12
3.0788	241.11	241.11
3.0788	246.32	246.32
3.0788	248.99	248.99
3.0788	254.01	254.01
3.0788	257.39	257.39
3.0788	262.21	262.21
3.0788	266.32	266.32
3.0788	270.95	270.95
3.1102	87.838	87.838
3.1102	89.584	89.584
3.1102	110.41	110.41
3.1102	112.44	112.44
3.1102	123.80	123.80
3.1102	126.02	126.02
3.1102	134.34	134.34
3.1102	136.72	136.72
3.1102	143.22	143.22
3.1102	145.73	145.73
3.1102	151.09	151.09
3.1102	153.71	153.71
3.1102	158.20	158.20
3.1102	160.92	160.92
3.1102	164.71	164.71
3.1102	167.51	167.51
3.1102	170.72	170.72
3.1102	173.60	173.60
3.1102	176.30	176.30
3.1102	179.24	179.24
3.1102	181.51	181.51
3.1102	184.50	184.50
3.1102	186.39	186.39
3.1102	189.41	189.41
3.1102	191.03	191.03
3.1102	194.06	194.06
3.1102	195.57	195.57
3.1102	198.58	198.58
3.1102	200.17	200.17
3.1102	203.15	203.15
3.1102	205.01	205.01
3.1102	207.97	207.97
3.1102	210.18	210.18
3.1102	213.12	213.12
3.1102	215.75	215.75
3.1102	218.66	218.66
3.1102	221.74	221.74
3.1102	224.59	224.59
3.1102	228.17	228.17
3.1102	230.95	230.95
3.1102	235.04	235.04
3.1102	237.74	237.74
3.1102	242.39	242.39
3.1102	244.99	244.99
3.1102	250.22	250.22
3.1102	252.73	252.73
3.1102	258.57	258.57
3.1102	260.98	260.98
3.1102	267.45	267.45
3.1102	269.77	269.77
3.1416	88.709	88.709
3.1416	88.709	88.709
3.1416	111.42	111.42
3.1416	111.42	111.42
3.1416	124.91	124.91
3.1416	124.91	124.91
3.1416	135.53	135.53
3.1416	135.53	135.53
3.1416	144.47	144.47
3.1416	144.47	144.47
3.1416	152.40	152.40
3.1416	152.40	152.40
3.1416	159.56	159.56
3.1416	159.56	159.56
3.1416	166.11	166.11
3.1416	166.11	166.11
3.1416	172.16	172.16
3.1416	172.16	172.16
3.1416	177.77	177.77
3.1416	177.77	177.77
3.1416	183.00	183.00
3.1416	183.00	183.00
3.1416	187.90	187.90
3.1416	187.90	187.90
3.1416	192.55	192.55
3.1416	192.55	192.55
3.1416	197.07	197.07
3.1416	197.07	197.07
3.1416	201.66	201.66
3.1416	201.66	201.66
3.1416	206.48	206.48
3.1416	206.48	206.48
3.1416	211.64	211.64
3.1416	211.64	211.64
3.1416	217.20	217.20
3.1416	217.20	217.20
3.1416	223.16	223.16
3.1416	223.16	223.16
3.1416	229.55	229.55
3.1416	229.55	229.55
3.1416	236.38	236.38
3.1416	236.38	236.38
3.1416	243.68	243.68
3.1416	243.68	243.68
3.1416	251.47	251.47
3.1416	251.47	251.47
3.1416	259.76	259.76
3.1416	259.76	259.76
3.1416	268.60	268.60
3.1416	268.60	268.60