kx (1/m)	Eigenfrequency (Hz)	real(freq) (Hz)
0.0000	0.057584	0.057584
0.0000	0.15672	0.15672
0.0000	0.32157	0.32157
0.0000	0.87522	0.87522
0.0000	0.90805	0.90805
0.0000	1.7336	1.7336
0.0000	2.4723	2.4723
0.0000	2.7953	2.7953
0.0000	4.0414	4.0414
0.0000	4.7275	4.7275
0.0000	5.1351	5.1351
0.0000	6.5310	6.5310
0.0000	7.6787	7.6787
0.0000	8.2929	8.2929
0.0000	10.565	10.565
0.0000	11.511	11.511
0.0000	12.783	12.783
0.0000	14.171	14.171
0.0000	15.701	15.701
0.0000	16.475	16.475
0.0000	18.804	18.804
0.0000	19.594	19.594
0.0000	20.345	20.345
0.0000	23.809	23.809
0.0000	23.908	23.908
0.031416	4.8993	4.8993
0.031416	5.5992	5.5992
0.031416	5.9034	5.9034
0.031416	5.9517	5.9517
0.031416	6.1975	6.1975
0.031416	6.6739	6.6739
0.031416	7.5570	7.5570
0.031416	8.9374	8.9374
0.031416	10.448	10.448
0.031416	11.965	11.965
0.031416	13.431	13.431
0.031416	15.076	15.076
0.031416	16.061	16.061
0.031416	16.110	16.110
0.031416	16.350	16.350
0.031416	16.600	16.600
0.031416	17.446	17.446
0.031416	17.971	17.971
0.031416	19.029	19.029
0.031416	19.581	19.581
0.031416	21.029	21.029
0.031416	21.668	21.668
0.031416	24.121	24.121
0.031416	24.771	24.771
0.031416	27.118	27.118
0.031416	28.131	28.131
0.031416	29.478	29.478
0.031416	32.865	32.865
0.031416	33.485	33.485
0.031416	36.188	36.188
0.031416	38.675	38.675
0.031416	39.847	39.847
0.031416	43.135	43.135
0.031416	45.744	45.744
0.031416	46.386	46.386
0.031416	48.744	48.744
0.031416	51.906	51.906
0.031416	52.398	52.398
0.031416	54.283	54.283
0.031416	58.096	58.096
0.031416	58.464	58.464
0.031416	60.911	60.911
0.031416	66.114	66.114
0.031416	66.731	66.731
0.031416	68.922	68.922
0.031416	73.545	73.545
0.031416	74.560	74.560
0.031416	77.563	77.563
0.031416	80.149	80.149
0.031416	80.892	80.892
0.062832	7.0672	7.0672
0.062832	9.3515	9.3515
0.062832	11.756	11.756
0.062832	11.802	11.802
0.062832	11.830	11.830
0.062832	11.960	11.960
0.062832	12.203	12.203
0.062832	12.690	12.690
0.062832	13.729	13.729
0.062832	15.275	15.275
0.062832	16.737	16.737
0.062832	17.952	17.952
0.062832	19.366	19.366
0.062832	21.471	21.471
0.062832	24.024	24.024
0.062832	26.357	26.357
0.062832	27.384	27.384
0.062832	28.841	28.841
0.062832	31.127	31.127
0.062832	32.116	32.116
0.062832	32.148	32.148
0.062832	32.310	32.310
0.062832	32.631	32.631
0.062832	33.397	33.397
0.062832	33.855	33.855
0.062832	35.306	35.306
0.062832	36.121	36.121
0.062832	37.377	37.377
0.062832	39.007	39.007
0.062832	40.438	40.438
0.062832	42.738	42.738
0.062832	44.314	44.314
0.062832	46.332	46.332
0.062832	47.770	47.770
0.062832	50.217	50.217
0.062832	52.159	52.159
0.062832	52.716	52.716
0.062832	55.759	55.759
0.062832	56.652	56.652
0.062832	59.023	59.023
0.062832	61.847	61.847
0.062832	62.853	62.853
0.062832	66.886	66.886
0.062832	69.408	69.408
0.062832	70.801	70.801
0.062832	74.348	74.348
0.062832	77.190	77.190
0.062832	77.837	77.837
0.062832	81.415	81.415
0.062832	83.321	83.321
0.094248	8.6074	8.6074
0.094248	10.945	10.945
0.094248	15.109	15.109
0.094248	17.701	17.701
0.094248	17.714	17.714
0.094248	17.779	17.779
0.094248	17.922	17.922
0.094248	18.168	18.168
0.094248	18.547	18.547
0.094248	19.046	19.046
0.094248	20.183	20.183
0.094248	21.504	21.504
0.094248	22.805	22.805
0.094248	24.707	24.707
0.094248	26.671	26.671
0.094248	28.724	28.724
0.094248	30.889	30.889
0.094248	33.304	33.304
0.094248	36.147	36.147
0.094248	36.513	36.513
0.094248	39.554	39.554
0.094248	42.732	42.732
0.094248	45.361	45.361
0.094248	47.631	47.631
0.094248	48.173	48.173
0.094248	48.197	48.197
0.094248	48.287	48.287
0.094248	48.565	48.565
0.094248	49.000	49.000
0.094248	49.903	49.903
0.094248	50.496	50.496
0.094248	51.749	51.749
0.094248	52.573	52.573
0.094248	53.560	53.560
0.094248	54.984	54.984
0.094248	56.720	56.720
0.094248	58.010	58.010
0.094248	59.602	59.602
0.094248	61.105	61.105
0.094248	63.561	63.561
0.094248	65.381	65.381
0.094248	67.846	67.846
0.094248	70.080	70.080
0.094248	71.284	71.284
0.094248	75.280	75.280
0.094248	76.837	76.837
0.094248	78.314	78.314
0.094248	81.885	81.885
0.094248	82.483	82.483
0.094248	85.489	85.489
0.12566	9.4240	9.4240
0.12566	12.177	12.177
0.12566	18.160	18.160
0.12566	20.345	20.345
0.12566	23.600	23.600
0.12566	23.611	23.611
0.12566	23.659	23.659
0.12566	23.767	23.767
0.12566	23.965	23.965
0.12566	24.431	24.431
0.12566	25.253	25.253
0.12566	26.106	26.106
0.12566	26.813	26.813
0.12566	27.865	27.865
0.12566	29.829	29.829
0.12566	32.170	32.170
0.12566	34.508	34.508
0.12566	36.457	36.457
0.12566	38.355	38.355
0.12566	40.629	40.629
0.12566	43.404	43.404
0.12566	45.017	45.017
0.12566	47.748	47.748
0.12566	50.558	50.558
0.12566	52.641	52.641
0.12566	55.608	55.608
0.12566	58.708	58.708
0.12566	59.871	59.871
0.12566	61.658	61.658
0.12566	64.230	64.230
0.12566	64.251	64.251
0.12566	64.310	64.310
0.12566	64.509	64.509
0.12566	64.691	64.691
0.12566	65.189	65.189
0.12566	65.675	65.675
0.12566	66.957	66.957
0.12566	67.764	67.764
0.12566	68.908	68.908
0.12566	70.332	70.332
0.12566	71.778	71.778
0.12566	73.939	73.939
0.12566	75.832	75.832
0.12566	77.291	77.291
0.12566	79.216	79.216
0.12566	79.978	79.978
0.12566	83.177	83.177
0.12566	84.481	84.481
0.12566	86.248	86.248
0.12566	89.231	89.231
0.15708	9.9976	9.9976
0.15708	13.568	13.568
0.15708	19.180	19.180
0.15708	23.788	23.788
0.15708	27.460	27.460
0.15708	29.500	29.500
0.15708	29.510	29.510
0.15708	29.549	29.549
0.15708	29.635	29.635
0.15708	29.793	29.793
0.15708	30.174	30.174
0.15708	30.900	30.900
0.15708	31.859	31.859
0.15708	32.686	32.686
0.15708	34.028	34.028
0.15708	35.623	35.623
0.15708	37.850	37.850
0.15708	39.932	39.932
0.15708	41.655	41.655
0.15708	44.317	44.317
0.15708	45.847	45.847
0.15708	47.965	47.965
0.15708	50.727	50.727
0.15708	52.439	52.439
0.15708	55.217	55.217
0.15708	57.993	57.993
0.15708	60.166	60.166
0.15708	63.042	63.042
0.15708	65.526	65.526
0.15708	67.711	67.711
0.15708	70.558	70.558
0.15708	74.488	74.488
0.15708	77.672	77.672
0.15708	80.239	80.239
0.15708	80.288	80.288
0.15708	80.309	80.309
0.15708	80.363	80.363
0.15708	80.487	80.487
0.15708	80.747	80.747
0.15708	81.153	81.153
0.15708	81.724	81.724
0.15708	82.671	82.671
0.15708	83.476	83.476
0.15708	84.662	84.662
0.15708	85.808	85.808
0.15708	86.694	86.694
0.15708	88.807	88.807
0.15708	90.368	90.368
0.15708	91.717	91.717
0.15708	94.118	94.118
0.18850	10.685	10.685
0.18850	14.866	14.866
0.18850	19.839	19.839
0.18850	26.465	26.465
0.18850	29.608	29.608
0.18850	35.400	35.400
0.18850	35.410	35.410
0.18850	35.437	35.437
0.18850	35.496	35.496
0.18850	35.583	35.583
0.18850	35.738	35.738
0.18850	36.057	36.057
0.18850	36.670	36.670
0.18850	37.481	37.481
0.18850	38.245	38.245
0.18850	39.811	39.811
0.18850	41.948	41.948
0.18850	43.874	43.874
0.18850	45.319	45.319
0.18850	46.920	46.920
0.18850	49.003	49.003
0.18850	51.913	51.913
0.18850	52.180	52.180
0.18850	55.636	55.636
0.18850	58.143	58.143
0.18850	59.945	59.945
0.18850	62.554	62.554
0.18850	65.823	65.823
0.18850	68.598	68.598
0.18850	69.511	69.511
0.18850	73.297	73.297
0.18850	76.743	76.743
0.18850	79.428	79.428
0.18850	83.132	83.132
0.18850	85.552	85.552
0.18850	86.904	86.904
0.18850	89.223	89.223
0.18850	91.828	91.828
0.18850	94.873	94.873
0.18850	96.345	96.345
0.18850	96.373	96.373
0.18850	96.414	96.414
0.18850	96.534	96.534
0.18850	96.814	96.814
0.18850	97.237	97.237
0.18850	98.038	98.038
0.18850	98.579	98.579
0.18850	99.591	99.591
0.18850	100.80	100.80
0.18850	101.70	101.70
0.21991	11.540	11.540
0.21991	16.013	16.013
0.21991	20.529	20.529
0.21991	27.692	27.692
0.21991	32.850	32.850
0.21991	37.352	37.352
0.21991	41.300	41.300
0.21991	41.312	41.312
0.21991	41.340	41.340
0.21991	41.398	41.398
0.21991	41.508	41.508
0.21991	41.768	41.768
0.21991	42.275	42.275
0.21991	42.989	42.989
0.21991	43.588	43.588
0.21991	44.461	44.461
0.21991	45.509	45.509
0.21991	47.401	47.401
0.21991	49.379	49.379
0.21991	50.696	50.696
0.21991	52.321	52.321
0.21991	53.822	53.822
0.21991	56.345	56.345
0.21991	59.138	59.138
0.21991	60.085	60.085
0.21991	62.978	62.978
0.21991	65.581	65.581
0.21991	68.432	68.432
0.21991	70.300	70.300
0.21991	72.831	72.831
0.21991	75.931	75.931
0.21991	78.316	78.316
0.21991	81.775	81.775
0.21991	85.015	85.015
0.21991	87.069	87.069
0.21991	90.452	90.452
0.21991	92.123	92.123
0.21991	93.845	93.845
0.21991	97.594	97.594
0.21991	100.77	100.77
0.21991	104.19	104.19
0.21991	108.43	108.43
0.21991	110.97	110.97
0.21991	111.15	111.15
0.21991	112.40	112.40
0.21991	112.43	112.43
0.21991	112.48	112.48
0.21991	112.57	112.57
0.21991	112.80	112.80
0.21991	113.15	113.15
0.25133	12.536	12.536
0.25133	17.022	17.022
0.25133	21.297	21.297
0.25133	28.566	28.566
0.25133	35.381	35.381
0.25133	39.507	39.507
0.25133	45.577	45.577
0.25133	47.199	47.199
0.25133	47.212	47.212
0.25133	47.242	47.242
0.25133	47.290	47.290
0.25133	47.387	47.387
0.25133	47.617	47.617
0.25133	48.070	48.070
0.25133	48.716	48.716
0.25133	49.279	49.279
0.25133	50.376	50.376
0.25133	51.622	51.622
0.25133	52.845	52.845
0.25133	54.608	54.608
0.25133	55.889	55.889
0.25133	57.680	57.680
0.25133	60.278	60.278
0.25133	61.458	61.458
0.25133	63.685	63.685
0.25133	66.256	66.256
0.25133	68.584	68.584
0.25133	70.829	70.829
0.25133	73.125	73.125
0.25133	76.322	76.322
0.25133	77.562	77.562
0.25133	80.709	80.709
0.25133	84.112	84.112
0.25133	86.299	86.299
0.25133	89.363	89.363
0.25133	92.466	92.466
0.25133	94.830	94.830
0.25133	97.474	97.474
0.25133	99.619	99.619
0.25133	102.76	102.76
0.25133	106.70	106.70
0.25133	109.92	109.92
0.25133	110.28	110.28
0.25133	113.06	113.06
0.25133	117.33	117.33
0.25133	120.03	120.03
0.25133	122.04	122.04
0.25133	123.33	123.33
0.25133	123.98	123.98
0.25133	126.43	126.43
0.28274	13.633	13.633
0.28274	17.925	17.925
0.28274	22.146	22.146
0.28274	29.398	29.398
0.28274	36.707	36.707
0.28274	42.429	42.429
0.28274	46.666	46.666
0.28274	52.408	52.408
0.28274	53.099	53.099
0.28274	53.112	53.112
0.28274	53.146	53.146
0.28274	53.186	53.186
0.28274	53.272	53.272
0.28274	53.477	53.477
0.28274	53.879	53.879
0.28274	54.460	54.460
0.28274	54.968	54.968
0.28274	55.992	55.992
0.28274	57.501	57.501
0.28274	58.820	58.820
0.28274	60.146	60.146
0.28274	61.534	61.534
0.28274	63.791	63.791
0.28274	65.581	65.581
0.28274	67.115	67.115
0.28274	69.088	69.088
0.28274	71.777	71.777
0.28274	74.053	74.053
0.28274	76.614	76.614
0.28274	78.545	78.545
0.28274	80.161	80.161
0.28274	83.697	83.697
0.28274	85.625	85.625
0.28274	88.428	88.428
0.28274	91.487	91.487
0.28274	94.410	94.410
0.28274	97.909	97.909
0.28274	100.30	100.30
0.28274	101.88	101.88
0.28274	105.78	105.78
0.28274	108.96	108.96
0.28274	109.60	109.60
0.28274	111.40	111.40
0.28274	115.26	115.26
0.28274	118.69	118.69
0.28274	121.67	121.67
0.28274	122.68	122.68
0.28274	125.19	125.19
0.28274	127.29	127.29
0.28274	129.17	129.17
0.31416	14.797	14.797
0.31416	18.757	18.757
0.31416	23.067	23.067
0.31416	30.243	30.243
0.31416	37.565	37.565
0.31416	44.593	44.593
0.31416	48.602	48.602
0.31416	53.308	53.308
0.31416	58.999	58.999
0.31416	59.011	59.011
0.31416	59.047	59.047
0.31416	59.086	59.086
0.31416	59.146	59.146
0.31416	59.283	59.283
0.31416	59.475	59.475
0.31416	59.789	59.789
0.31416	60.278	60.278
0.31416	60.739	60.739
0.31416	61.716	61.716
0.31416	63.301	63.301
0.31416	65.067	65.067
0.31416	66.240	66.240
0.31416	67.788	67.788
0.31416	69.363	69.363
0.31416	69.995	69.995
0.31416	72.757	72.757
0.31416	75.346	75.346
0.31416	77.599	77.599
0.31416	79.522	79.522
0.31416	81.125	81.125
0.31416	84.096	84.096
0.31416	85.566	85.566
0.31416	87.943	87.943
0.31416	90.736	90.736
0.31416	93.633	93.633
0.31416	97.086	97.086
0.31416	100.48	100.48
0.31416	102.10	102.10
0.31416	105.52	105.52
0.31416	108.91	108.91
0.31416	109.19	109.19
0.31416	110.45	110.45
0.31416	113.84	113.84
0.31416	117.36	117.36
0.31416	120.10	120.10
0.31416	123.28	123.28
0.31416	123.60	123.60
0.31416	126.24	126.24
0.31416	129.63	129.63
0.31416	129.90	129.90
0.34558	16.002	16.002
0.34558	19.547	19.547
0.34558	24.052	24.052
0.34558	31.110	31.110
0.34558	38.294	38.294
0.34558	45.630	45.630
0.34558	51.014	51.014
0.34558	54.700	54.700
0.34558	60.725	60.725
0.34558	64.898	64.898
0.34558	64.910	64.910
0.34558	64.950	64.950
0.34558	64.999	64.999
0.34558	65.050	65.050
0.34558	65.211	65.211
0.34558	65.525	65.525
0.34558	66.001	66.001
0.34558	66.422	66.422
0.34558	67.196	67.196
0.34558	68.234	68.234
0.34558	69.223	69.223
0.34558	70.667	70.667
0.34558	71.809	71.809
0.34558	72.984	72.984
0.34558	74.326	74.326
0.34558	76.543	76.543
0.34558	78.493	78.493
0.34558	80.871	80.871
0.34558	82.920	82.920
0.34558	85.068	85.068
0.34558	86.793	86.793
0.34558	88.287	88.287
0.34558	90.727	90.727
0.34558	93.005	93.005
0.34558	96.589	96.589
0.34558	99.786	99.786
0.34558	102.20	102.20
0.34558	105.15	105.15
0.34558	108.22	108.22
0.34558	109.11	109.11
0.34558	111.30	111.30
0.34558	113.22	113.22
0.34558	116.63	116.63
0.34558	119.04	119.04
0.34558	122.26	122.26
0.34558	123.84	123.84
0.34558	125.20	125.20
0.34558	127.89	127.89
0.34558	129.62	129.62
0.34558	131.85	131.85
0.37699	17.227	17.227
0.37699	20.313	20.313
0.37699	25.094	25.094
0.37699	32.000	32.000
0.37699	38.984	38.984
0.37699	46.270	46.270
0.37699	52.514	52.514
0.37699	57.051	57.051
0.37699	61.954	61.954
0.37699	69.448	69.448
0.37699	70.798	70.798
0.37699	70.810	70.810
0.37699	70.849	70.849
0.37699	70.915	70.915
0.37699	70.949	70.949
0.37699	71.098	71.098
0.37699	71.391	71.391
0.37699	71.835	71.835
0.37699	72.234	72.234
0.37699	73.009	73.009
0.37699	74.321	74.321
0.37699	75.742	75.742
0.37699	76.338	76.338
0.37699	77.045	77.045
0.37699	78.027	78.027
0.37699	79.766	79.766
0.37699	82.307	82.307
0.37699	84.501	84.501
0.37699	86.446	86.446
0.37699	88.332	88.332
0.37699	90.193	90.193
0.37699	92.024	92.024
0.37699	93.001	93.001
0.37699	96.559	96.559
0.37699	99.696	99.696
0.37699	101.85	101.85
0.37699	104.89	104.89
0.37699	107.52	107.52
0.37699	108.39	108.39
0.37699	111.72	111.72
0.37699	113.77	113.77
0.37699	116.98	116.98
0.37699	118.50	118.50
0.37699	121.49	121.49
0.37699	124.33	124.33
0.37699	124.53	124.53
0.37699	126.73	126.73
0.37699	129.41	129.41
0.37699	130.28	130.28
0.37699	133.60	133.60
0.40841	18.457	18.457
0.40841	21.068	21.068
0.40841	26.190	26.190
0.40841	32.912	32.912
0.40841	39.665	39.665
0.40841	46.812	46.812
0.40841	53.376	53.376
0.40841	59.300	59.300
0.40841	63.838	63.838
0.40841	70.462	70.462
0.40841	76.698	76.698
0.40841	76.708	76.708
0.40841	76.746	76.746
0.40841	76.824	76.824
0.40841	76.856	76.856
0.40841	76.976	76.976
0.40841	77.223	77.223
0.40841	77.591	77.591
0.40841	77.902	77.902
0.40841	78.207	78.207
0.40841	78.864	78.864
0.40841	79.340	79.340
0.40841	80.101	80.101
0.40841	81.575	81.575
0.40841	82.610	82.610
0.40841	84.322	84.322
0.40841	85.755	85.755
0.40841	87.792	87.792
0.40841	90.208	90.208
0.40841	92.070	92.070
0.40841	93.644	93.644
0.40841	95.101	95.101
0.40841	97.516	97.516
0.40841	100.59	100.59
0.40841	101.76	101.76
0.40841	104.85	104.85
0.40841	106.83	106.83
0.40841	108.05	108.05
0.40841	111.18	111.18
0.40841	114.12	114.12
0.40841	117.34	117.34
0.40841	119.29	119.29
0.40841	121.22	121.22
0.40841	124.63	124.63
0.40841	124.70	124.70
0.40841	126.06	126.06
0.40841	129.29	129.29
0.40841	129.37	129.37
0.40841	132.65	132.65
0.40841	135.20	135.20
0.43982	19.679	19.679
0.43982	21.821	21.821
0.43982	27.336	27.336
0.43982	33.844	33.844
0.43982	40.348	40.348
0.43982	47.337	47.337
0.43982	54.066	54.066
0.43982	60.740	60.740
0.43982	66.352	66.352
0.43982	71.671	71.671
0.43982	79.129	79.129
0.43982	81.704	81.704
0.43982	82.598	82.598
0.43982	82.608	82.608
0.43982	82.645	82.645
0.43982	82.727	82.727
0.43982	82.782	82.782
0.43982	82.875	82.875
0.43982	83.115	83.115
0.43982	83.491	83.491
0.43982	83.847	83.847
0.43982	84.458	84.458
0.43982	85.426	85.426
0.43982	86.160	86.160
0.43982	87.243	87.243
0.43982	88.203	88.203
0.43982	89.988	89.988
0.43982	91.894	91.894
0.43982	93.400	93.400
0.43982	95.698	95.698
0.43982	97.748	97.748
0.43982	99.550	99.550
0.43982	101.99	101.99
0.43982	103.39	103.39
0.43982	105.37	105.37
0.43982	106.14	106.14
0.43982	108.31	108.31
0.43982	110.85	110.85
0.43982	114.08	114.08
0.43982	117.24	117.24
0.43982	119.85	119.85
0.43982	121.69	121.69
0.43982	124.91	124.91
0.43982	125.27	125.27
0.43982	126.18	126.18
0.43982	129.10	129.10
0.43982	129.32	129.32
0.43982	132.39	132.39
0.43982	134.46	134.46
0.43982	137.63	137.63
0.47124	20.875	20.875
0.47124	22.584	22.584
0.47124	28.529	28.529
0.47124	34.795	34.795
0.47124	41.037	41.037
0.47124	47.878	47.878
0.47124	54.722	54.722
0.47124	61.723	61.723
0.47124	68.564	68.564
0.47124	73.501	73.501
0.47124	80.000	80.000
0.47124	83.807	83.807
0.47124	86.859	86.859
0.47124	88.497	88.497
0.47124	88.507	88.507
0.47124	88.543	88.543
0.47124	88.626	88.626
0.47124	88.717	88.717
0.47124	88.774	88.774
0.47124	88.999	88.999
0.47124	89.350	89.350
0.47124	89.693	89.693
0.47124	90.274	90.274
0.47124	91.305	91.305
0.47124	92.458	92.458
0.47124	93.132	93.132
0.47124	93.890	93.890
0.47124	95.587	95.587
0.47124	97.871	97.871
0.47124	99.958	99.958
0.47124	101.74	101.74
0.47124	103.68	103.68
0.47124	105.45	105.45
0.47124	105.72	105.72
0.47124	107.78	107.78
0.47124	109.71	109.71
0.47124	111.00	111.00
0.47124	114.25	114.25
0.47124	117.46	117.46
0.47124	119.74	119.74
0.47124	122.19	122.19
0.47124	124.93	124.93
0.47124	125.24	125.24
0.47124	127.32	127.32
0.47124	129.48	129.48
0.47124	129.52	129.52
0.47124	133.02	133.02
0.47124	134.38	134.38
0.47124	137.11	137.11
0.47124	140.53	140.53
0.50265	22.019	22.019
0.50265	23.376	23.376
0.50265	29.766	29.766
0.50265	35.762	35.762
0.50265	41.736	41.736
0.50265	48.450	48.450
0.50265	55.386	55.386
0.50265	62.545	62.545
0.50265	70.009	70.009
0.50265	75.859	75.859
0.50265	81.092	81.092
0.50265	85.443	85.443
0.50265	88.101	88.101
0.50265	93.747	93.747
0.50265	94.397	94.397
0.50265	94.406	94.406
0.50265	94.441	94.441
0.50265	94.525	94.525
0.50265	94.654	94.654
0.50265	94.678	94.678
0.50265	94.891	94.891
0.50265	95.219	95.219
0.50265	95.550	95.550
0.50265	96.096	96.096
0.50265	97.094	97.094
0.50265	98.365	98.365
0.50265	99.263	99.263
0.50265	100.55	100.55
0.50265	101.80	101.80
0.50265	103.68	103.68
0.50265	104.76	104.76
0.50265	106.11	106.11
0.50265	108.23	108.23
0.50265	109.90	109.90
0.50265	111.73	111.73
0.50265	113.24	113.24
0.50265	115.34	115.34
0.50265	118.30	118.30
0.50265	119.85	119.85
0.50265	122.57	122.57
0.50265	124.77	124.77
0.50265	125.31	125.31
0.50265	127.71	127.71
0.50265	129.89	129.89
0.50265	130.21	130.21
0.50265	133.57	133.57
0.50265	135.66	135.66
0.50265	137.29	137.29
0.50265	140.58	140.58
0.50265	143.08	143.08
0.53407	23.066	23.066
0.53407	24.239	24.239
0.53407	31.042	31.042
0.53407	36.745	36.745
0.53407	42.448	42.448
0.53407	49.063	49.063
0.53407	56.074	56.074
0.53407	63.315	63.315
0.53407	70.994	70.994
0.53407	77.911	77.911
0.53407	82.713	82.713
0.53407	86.680	86.680
0.53407	89.687	89.687
0.53407	94.820	94.820
0.53407	100.30	100.30
0.53407	100.31	100.31
0.53407	100.34	100.34
0.53407	100.42	100.42
0.53407	100.56	100.56
0.53407	100.61	100.61
0.53407	100.77	100.77
0.53407	101.06	101.06
0.53407	101.37	101.37
0.53407	101.75	101.75
0.53407	102.21	102.21
0.53407	102.99	102.99
0.53407	104.07	104.07
0.53407	104.15	104.15
0.53407	105.01	105.01
0.53407	106.52	106.52
0.53407	108.61	108.61
0.53407	110.46	110.46
0.53407	111.99	111.99
0.53407	113.87	113.87
0.53407	115.74	115.74
0.53407	117.75	117.75
0.53407	120.19	120.19
0.53407	121.08	121.08
0.53407	123.36	123.36
0.53407	124.48	124.48
0.53407	125.76	125.76
0.53407	127.91	127.91
0.53407	130.38	130.38
0.53407	130.83	130.83
0.53407	133.73	133.73
0.53407	136.56	136.56
0.53407	138.67	138.67
0.53407	141.60	141.60
0.53407	143.37	143.37
0.53407	145.74	145.74
0.56549	23.972	23.972
0.56549	25.214	25.214
0.56549	32.353	32.353
0.56549	37.741	37.741
0.56549	43.178	43.178
0.56549	49.722	49.722
0.56549	56.791	56.791
0.56549	64.071	64.071
0.56549	71.798	71.798
0.56549	79.234	79.234
0.56549	84.594	84.594
0.56549	88.030	88.030
0.56549	91.467	91.467
0.56549	95.993	95.993
0.56549	103.17	103.17
0.56549	103.39	103.39
0.56549	106.20	106.20
0.56549	106.20	106.20
0.56549	106.24	106.24
0.56549	106.32	106.32
0.56549	106.46	106.46
0.56549	106.56	106.56
0.56549	106.68	106.68
0.56549	106.96	106.96
0.56549	107.27	107.27
0.56549	107.73	107.73
0.56549	108.58	108.58
0.56549	109.71	109.71
0.56549	110.53	110.53
0.56549	111.31	111.31
0.56549	112.41	112.41
0.56549	114.36	114.36
0.56549	116.61	116.61
0.56549	118.48	118.48
0.56549	119.77	119.77
0.56549	121.48	121.48
0.56549	123.71	123.71
0.56549	124.10	124.10
0.56549	125.75	125.75
0.56549	127.32	127.32
0.56549	128.53	128.53
0.56549	130.95	130.95
0.56549	131.60	131.60
0.56549	134.06	134.06
0.56549	136.82	136.82
0.56549	139.76	139.76
0.56549	142.75	142.75
0.56549	144.93	144.93
0.56549	146.16	146.16
0.56549	149.57	149.57
0.59690	24.747	24.747
0.59690	26.284	26.284
0.59690	33.694	33.694
0.59690	38.745	38.745
0.59690	43.933	43.933
0.59690	50.431	50.431
0.59690	57.541	57.541
0.59690	64.832	64.832
0.59690	72.533	72.533
0.59690	80.108	80.108
0.59690	85.945	85.945
0.59690	89.813	89.813
0.59690	93.412	93.412
0.59690	97.431	97.431
0.59690	102.70	102.70
0.59690	104.15	104.15
0.59690	112.01	112.01
0.59690	112.10	112.10
0.59690	112.10	112.10
0.59690	112.14	112.14
0.59690	112.22	112.22
0.59690	112.37	112.37
0.59690	112.52	112.52
0.59690	112.60	112.60
0.59690	112.87	112.87
0.59690	113.16	113.16
0.59690	113.60	113.60
0.59690	114.42	114.42
0.59690	115.52	115.52
0.59690	116.36	116.36
0.59690	117.61	117.61
0.59690	119.23	119.23
0.59690	120.37	120.37
0.59690	122.26	122.26
0.59690	123.66	123.66
0.59690	124.24	124.24
0.59690	125.76	125.76
0.59690	127.19	127.19
0.59690	129.40	129.40
0.59690	131.58	131.58
0.59690	131.61	131.61
0.59690	133.50	133.50
0.59690	134.75	134.75
0.59690	137.33	137.33
0.59690	140.54	140.54
0.59690	143.35	143.35
0.59690	145.84	145.84
0.59690	147.85	147.85
0.59690	150.68	150.68
0.59690	152.78	152.78
0.62832	25.436	25.436
0.62832	27.403	27.403
0.62832	35.060	35.060
0.62832	39.756	39.756
0.62832	44.719	44.719
0.62832	51.191	51.191
0.62832	58.322	58.322
0.62832	65.605	65.605
0.62832	73.241	73.241
0.62832	80.794	80.794
0.62832	86.779	86.779
0.62832	91.508	91.508
0.62832	95.585	95.585
0.62832	99.211	99.211
0.62832	102.02	102.02
0.62832	105.21	105.21
0.62832	112.98	112.98
0.62832	118.00	118.00
0.62832	118.00	118.00
0.62832	118.03	118.03
0.62832	118.11	118.11
0.62832	118.25	118.25
0.62832	118.47	118.47
0.62832	118.50	118.50
0.62832	118.75	118.75
0.62832	119.02	119.02
0.62832	119.39	119.39
0.62832	119.98	119.98
0.62832	120.48	120.48
0.62832	121.35	121.35
0.62832	122.13	122.13
0.62832	123.17	123.17
0.62832	123.35	123.35
0.62832	125.15	125.15
0.62832	126.69	126.69
0.62832	127.97	127.97
0.62832	129.81	129.81
0.62832	131.58	131.58
0.62832	132.25	132.25
0.62832	133.65	133.65
0.62832	135.55	135.55
0.62832	137.67	137.67
0.62832	139.03	139.03
0.62832	141.72	141.72
0.62832	144.12	144.12
0.62832	146.30	146.30
0.62832	149.13	149.13
0.62832	151.92	151.92
0.62832	152.33	152.33
0.62832	154.97	154.97
0.65973	26.068	26.068
0.65973	28.539	28.539
0.65973	36.447	36.447
0.65973	40.768	40.768
0.65973	45.544	45.544
0.65973	52.002	52.002
0.65973	59.136	59.136
0.65973	66.393	66.393
0.65973	73.943	73.943
0.65973	81.401	81.401
0.65973	87.407	87.407
0.65973	92.796	92.796
0.65973	97.731	97.731
0.65973	101.34	101.34
0.65973	101.34	101.34
0.65973	106.52	106.52
0.65973	113.80	113.80
0.65973	120.98	120.98
0.65973	122.65	122.65
0.65973	123.90	123.90
0.65973	123.90	123.90
0.65973	123.93	123.93
0.65973	124.00	124.00
0.65973	124.15	124.15
0.65973	124.38	124.38
0.65973	124.47	124.47
0.65973	124.66	124.66
0.65973	124.93	124.93
0.65973	125.29	125.29
0.65973	125.96	125.96
0.65973	126.85	126.85
0.65973	127.43	127.43
0.65973	127.98	127.98
0.65973	129.10	129.10
0.65973	130.88	130.88
0.65973	132.91	132.91
0.65973	132.94	132.94
0.65973	134.62	134.62
0.65973	135.78	135.78
0.65973	137.31	137.31
0.65973	139.63	139.63
0.65973	142.06	142.06
0.65973	144.23	144.23
0.65973	146.17	146.17
0.65973	147.07	147.07
0.65973	150.18	150.18
0.65973	151.86	151.86
0.65973	152.90	152.90
0.65973	155.53	155.53
0.65973	158.17	158.17
0.69115	26.658	26.658
0.69115	29.675	29.675
0.69115	37.848	37.848
0.69115	41.782	41.782
0.69115	46.416	46.416
0.69115	52.862	52.862
0.69115	59.981	59.981
0.69115	67.199	67.199
0.69115	74.645	74.645
0.69115	81.972	81.972
0.69115	87.965	87.965
0.69115	93.798	93.798
0.69115	99.556	99.556
0.69115	100.66	100.66
0.69115	103.59	103.59
0.69115	108.20	108.20
0.69115	114.72	114.72
0.69115	121.62	121.62
0.69115	122.11	122.11
0.69115	128.04	128.04
0.69115	129.80	129.80
0.69115	129.80	129.80
0.69115	129.83	129.83
0.69115	129.90	129.90
0.69115	130.04	130.04
0.69115	130.28	130.28
0.69115	130.45	130.45
0.69115	130.58	130.58
0.69115	130.84	130.84
0.69115	131.18	131.18
0.69115	131.83	131.83
0.69115	132.78	132.78
0.69115	133.60	133.60
0.69115	133.65	133.65
0.69115	134.54	134.54
0.69115	135.68	135.68
0.69115	136.80	136.80
0.69115	138.68	138.68
0.69115	140.60	140.60
0.69115	142.24	142.24
0.69115	144.06	144.06
0.69115	145.79	145.79
0.69115	148.25	148.25
0.69115	150.66	150.66
0.69115	151.38	151.38
0.69115	152.15	152.15
0.69115	154.00	154.00
0.69115	156.18	156.18
0.69115	159.15	159.15
0.69115	161.89	161.89
0.72257	27.209	27.209
0.72257	30.805	30.805
0.72257	39.256	39.256
0.72257	42.796	42.796
0.72257	47.342	47.342
0.72257	53.769	53.769
0.72257	60.857	60.857
0.72257	68.023	68.023
0.72257	75.354	75.354
0.72257	82.526	82.526
0.72257	88.503	88.503
0.72257	94.652	94.652
0.72257	99.979	99.979
0.72257	101.05	101.05
0.72257	105.65	105.65
0.72257	110.25	110.25
0.72257	115.86	115.86
0.72257	121.55	121.55
0.72257	122.27	122.27
0.72257	128.74	128.74
0.72257	134.38	134.38
0.72257	135.70	135.70
0.72257	135.70	135.70
0.72257	135.73	135.73
0.72257	135.79	135.79
0.72257	135.92	135.92
0.72257	136.12	136.12
0.72257	136.34	136.34
0.72257	136.44	136.44
0.72257	136.57	136.57
0.72257	136.80	136.80
0.72257	137.11	137.11
0.72257	137.72	137.72
0.72257	138.63	138.63
0.72257	139.44	139.44
0.72257	140.41	140.41
0.72257	142.04	142.04
0.72257	143.86	143.86
0.72257	145.28	145.28
0.72257	146.48	146.48
0.72257	148.01	148.01
0.72257	150.23	150.23
0.72257	150.90	150.90
0.72257	152.73	152.73
0.72257	154.84	154.84
0.72257	156.97	156.97
0.72257	157.86	157.86
0.72257	160.40	160.40
0.72257	163.03	163.03
0.72257	165.02	165.02
0.75398	27.727	27.727
0.75398	31.926	31.926
0.75398	40.664	40.664
0.75398	43.816	43.816
0.75398	48.325	48.325
0.75398	54.721	54.721
0.75398	61.762	61.762
0.75398	68.865	68.865
0.75398	76.069	76.069
0.75398	83.075	83.075
0.75398	89.044	89.044
0.75398	95.429	95.429
0.75398	99.303	99.303
0.75398	102.29	102.29
0.75398	107.45	107.45
0.75398	112.30	112.30
0.75398	117.35	117.35
0.75398	120.98	120.98
0.75398	123.04	123.04
0.75398	129.45	129.45
0.75398	135.11	135.11
0.75398	137.34	137.34
0.75398	141.60	141.60
0.75398	141.60	141.60
0.75398	141.63	141.63
0.75398	141.69	141.69
0.75398	141.83	141.83
0.75398	142.05	142.05
0.75398	142.39	142.39
0.75398	142.44	142.44
0.75398	142.70	142.70
0.75398	142.95	142.95
0.75398	143.51	143.51
0.75398	144.34	144.34
0.75398	145.13	145.13
0.75398	145.75	145.75
0.75398	146.49	146.49
0.75398	147.88	147.88
0.75398	149.74	149.74
0.75398	150.40	150.40
0.75398	151.60	151.60
0.75398	153.14	153.14
0.75398	154.77	154.77
0.75398	156.30	156.30
0.75398	158.64	158.64
0.75398	161.23	161.23
0.75398	163.30	163.30
0.75398	164.98	164.98
0.75398	165.85	165.85
0.75398	168.65	168.65
0.78540	28.211	28.211
0.78540	33.034	33.034
0.78540	42.061	42.061
0.78540	44.851	44.851
0.78540	49.367	49.367
0.78540	55.714	55.714
0.78540	62.695	62.695
0.78540	69.725	69.725
0.78540	76.791	76.791
0.78540	83.623	83.623
0.78540	89.600	89.600
0.78540	96.170	96.170
0.78540	98.629	98.629
0.78540	103.35	103.35
0.78540	109.08	109.08
0.78540	114.03	114.03
0.78540	119.10	119.10
0.78540	120.40	120.40
0.78540	124.07	124.07
0.78540	130.26	130.26
0.78540	135.85	135.85
0.78540	138.13	138.13
0.78540	146.75	146.75
0.78540	147.50	147.50
0.78540	147.50	147.50
0.78540	147.53	147.53
0.78540	147.59	147.59
0.78540	147.72	147.72
0.78540	147.95	147.95
0.78540	148.30	148.30
0.78540	148.45	148.45
0.78540	148.66	148.66
0.78540	148.88	148.88
0.78540	149.41	149.41
0.78540	149.90	149.90
0.78540	150.22	150.22
0.78540	151.04	151.04
0.78540	151.88	151.88
0.78540	153.33	153.33
0.78540	154.94	154.94
0.78540	156.07	156.07
0.78540	157.41	157.41
0.78540	158.91	158.91
0.78540	160.93	160.93
0.78540	163.20	163.20
0.78540	164.89	164.89
0.78540	167.06	167.06
0.78540	169.18	169.18
0.78540	169.45	169.45
0.78540	170.98	170.98
0.81681	28.664	28.664
0.81681	34.128	34.128
0.81681	43.430	43.430
0.81681	45.918	45.918
0.81681	50.465	50.465
0.81681	56.745	56.745
0.81681	63.654	63.654
0.81681	70.602	70.602
0.81681	77.519	77.519
0.81681	84.176	84.176
0.81681	90.177	90.177
0.81681	96.894	96.894
0.81681	97.957	97.957
0.81681	104.30	104.30
0.81681	110.58	110.58
0.81681	115.48	115.48
0.81681	119.81	119.81
0.81681	120.70	120.70
0.81681	125.50	125.50
0.81681	131.28	131.28
0.81681	136.60	136.60
0.81681	138.95	138.95
0.81681	147.62	147.62
0.81681	149.40	149.40
0.81681	153.40	153.40
0.81681	153.40	153.40
0.81681	153.43	153.43
0.81681	153.49	153.49
0.81681	153.61	153.61
0.81681	153.83	153.83
0.81681	154.17	154.17
0.81681	154.47	154.47
0.81681	154.59	154.59
0.81681	154.79	154.79
0.81681	155.23	155.23
0.81681	155.89	155.89
0.81681	156.44	156.44
0.81681	156.99	156.99
0.81681	157.77	157.77
0.81681	159.16	159.16
0.81681	160.91	160.91
0.81681	162.68	162.68
0.81681	164.05	164.05
0.81681	165.10	165.10
0.81681	166.65	166.65
0.81681	168.96	168.96
0.81681	170.21	170.21
0.81681	170.82	170.82
0.81681	172.56	172.56
0.81681	175.11	175.11
0.84823	29.088	29.088
0.84823	35.208	35.208
0.84823	44.754	44.754
0.84823	47.040	47.040
0.84823	51.615	51.615
0.84823	57.813	57.813
0.84823	64.639	64.639
0.84823	71.495	71.495
0.84823	78.251	78.251
0.84823	84.737	84.737
0.84823	90.780	90.780
0.84823	97.288	97.288
0.84823	97.614	97.614
0.84823	105.16	105.16
0.84823	111.94	111.94
0.84823	116.82	116.82
0.84823	119.22	119.22
0.84823	121.87	121.87
0.84823	127.14	127.14
0.84823	132.66	132.66
0.84823	137.34	137.34
0.84823	139.88	139.88
0.84823	148.41	148.41
0.84823	148.89	148.89
0.84823	157.20	157.20
0.84823	159.30	159.30
0.84823	159.30	159.30
0.84823	159.33	159.33
0.84823	159.39	159.39
0.84823	159.51	159.51
0.84823	159.73	159.73
0.84823	160.07	160.07
0.84823	160.50	160.50
0.84823	160.53	160.53
0.84823	160.77	160.77
0.84823	161.16	161.16
0.84823	161.88	161.88
0.84823	162.69	162.69
0.84823	163.42	163.42
0.84823	164.59	164.59
0.84823	165.46	165.46
0.84823	166.71	166.71
0.84823	168.40	168.40
0.84823	169.83	169.83
0.84823	170.98	170.98
0.84823	171.15	171.15
0.84823	172.31	172.31
0.84823	174.52	174.52
0.84823	177.02	177.02
0.84823	179.03	179.03
0.87965	29.483	29.483
0.87965	36.273	36.273
0.87965	46.013	46.013
0.87965	48.237	48.237
0.87965	52.813	52.813
0.87965	58.914	58.914
0.87965	65.649	65.649
0.87965	72.402	72.402
0.87965	78.987	78.987
0.87965	85.312	85.312
0.87965	91.411	91.411
0.87965	96.620	96.620
0.87965	98.337	98.337
0.87965	105.97	105.97
0.87965	113.16	113.16
0.87965	118.19	118.19
0.87965	118.63	118.63
0.87965	122.72	122.72
0.87965	128.60	128.60
0.87965	134.41	134.41
0.87965	138.09	138.09
0.87965	141.02	141.02
0.87965	148.38	148.38
0.87965	149.23	149.23
0.87965	157.96	157.96
0.87965	165.20	165.20
0.87965	165.20	165.20
0.87965	165.23	165.23
0.87965	165.28	165.28
0.87965	165.39	165.39
0.87965	165.57	165.57
0.87965	165.75	165.75
0.87965	166.01	166.01
0.87965	166.46	166.46
0.87965	166.54	166.54
0.87965	166.77	166.77
0.87965	167.08	167.08
0.87965	167.76	167.76
0.87965	168.56	168.56
0.87965	169.28	169.28
0.87965	170.46	170.46
0.87965	171.65	171.65
0.87965	171.75	171.75
0.87965	172.52	172.52
0.87965	174.08	174.08
0.87965	175.53	175.53
0.87965	177.24	177.24
0.87965	179.07	179.07
0.87965	180.55	180.55
0.87965	182.89	182.89
0.91106	29.853	29.853
0.91106	37.322	37.322
0.91106	47.201	47.201
0.91106	49.519	49.519
0.91106	54.053	54.053
0.91106	60.045	60.045
0.91106	66.681	66.681
0.91106	73.321	73.321
0.91106	79.723	79.723
0.91106	85.904	85.904
0.91106	92.071	92.071
0.91106	95.955	95.955
0.91106	99.069	99.069
0.91106	106.75	106.75
0.91106	114.23	114.23
0.91106	118.03	118.03
0.91106	119.63	119.63
0.91106	123.42	123.42
0.91106	129.75	129.75
0.91106	136.26	136.26
0.91106	138.84	138.84
0.91106	142.48	142.48
0.91106	147.87	147.87
0.91106	150.15	150.15
0.91106	158.68	158.68
0.91106	166.46	166.46
0.91106	171.10	171.10
0.91106	171.10	171.10
0.91106	171.13	171.13
0.91106	171.18	171.18
0.91106	171.30	171.30
0.91106	171.50	171.50
0.91106	171.81	171.81
0.91106	172.18	172.18
0.91106	172.46	172.46
0.91106	172.52	172.52
0.91106	172.58	172.58
0.91106	172.79	172.79
0.91106	173.01	173.01
0.91106	173.65	173.65
0.91106	174.43	174.43
0.91106	175.13	175.13
0.91106	176.28	176.28
0.91106	177.82	177.82
0.91106	179.34	179.34
0.91106	180.34	180.34
0.91106	181.39	181.39
0.91106	183.04	183.04
0.91106	185.28	185.28
0.91106	187.68	187.68
0.94248	30.200	30.200
0.94248	38.355	38.355
0.94248	48.329	48.329
0.94248	50.881	50.881
0.94248	55.329	55.329
0.94248	61.204	61.204
0.94248	67.734	67.734
0.94248	74.251	74.251
0.94248	80.459	80.459
0.94248	86.518	86.518
0.94248	92.761	92.761
0.94248	95.292	95.292
0.94248	99.811	99.811
0.94248	107.52	107.52
0.94248	115.18	115.18
0.94248	117.43	117.43
0.94248	121.12	121.12
0.94248	124.05	124.05
0.94248	130.68	130.68
0.94248	137.87	137.87
0.94248	139.58	139.58
0.94248	144.26	144.26
0.94248	147.37	147.37
0.94248	151.25	151.25
0.94248	159.44	159.44
0.94248	167.02	167.02
0.94248	173.04	173.04
0.94248	173.28	173.28
0.94248	177.00	177.00
0.94248	177.00	177.00
0.94248	177.03	177.03
0.94248	177.08	177.08
0.94248	177.19	177.19
0.94248	177.39	177.39
0.94248	177.71	177.71
0.94248	178.18	178.18
0.94248	178.64	178.64
0.94248	178.74	178.74
0.94248	178.91	178.91
0.94248	179.46	179.46
0.94248	180.16	180.16
0.94248	180.67	180.67
0.94248	181.17	181.17
0.94248	182.18	182.18
0.94248	183.66	183.66
0.94248	185.32	185.32
0.94248	186.77	186.77
0.94248	188.29	188.29
0.94248	189.88	189.88
0.94248	191.33	191.33
0.97389	30.525	30.525
0.97389	39.372	39.372
0.97389	49.415	49.415
0.97389	52.303	52.303
0.97389	56.638	56.638
0.97389	62.389	62.389
0.97389	68.808	68.808
0.97389	75.189	75.189
0.97389	81.194	81.194
0.97389	87.157	87.157
0.97389	93.479	93.479
0.97389	94.632	94.632
0.97389	100.56	100.56
0.97389	108.27	108.27
0.97389	116.05	116.05
0.97389	116.83	116.83
0.97389	122.65	122.65
0.97389	124.68	124.68
0.97389	131.52	131.52
0.97389	139.15	139.15
0.97389	140.30	140.30
0.97389	146.12	146.12
0.97389	146.89	146.89
0.97389	152.64	152.64
0.97389	160.28	160.28
0.97389	167.58	167.58
0.97389	173.68	173.68
0.97389	174.03	174.03
0.97389	181.56	181.56
0.97389	182.90	182.90
0.97389	182.90	182.90
0.97389	182.93	182.93
0.97389	182.98	182.98
0.97389	183.09	183.09
0.97389	183.29	183.29
0.97389	183.61	183.61
0.97389	184.08	184.08
0.97389	184.69	184.69
0.97389	184.71	184.71
0.97389	184.93	184.93
0.97389	185.41	185.41
0.97389	186.15	186.15
0.97389	186.83	186.83
0.97389	187.80	187.80
0.97389	189.18	189.18
0.97389	190.46	190.46
0.97389	191.41	191.41
0.97389	192.63	192.63
0.97389	194.16	194.16
0.97389	196.25	196.25
1.0053	30.832	30.832
1.0053	40.373	40.373
1.0053	50.478	50.478
1.0053	53.769	53.769
1.0053	57.974	57.974
1.0053	63.598	63.598
1.0053	69.899	69.899
1.0053	76.132	76.132
1.0053	81.927	81.927
1.0053	87.827	87.827
1.0053	93.973	93.973
1.0053	94.226	94.226
1.0053	101.33	101.33
1.0053	109.03	109.03
1.0053	116.22	116.22
1.0053	116.86	116.86
1.0053	124.12	124.12
1.0053	125.36	125.36
1.0053	132.31	132.31
1.0053	140.20	140.20
1.0053	141.00	141.00
1.0053	146.43	146.43
1.0053	147.78	147.78
1.0053	154.32	154.32
1.0053	161.28	161.28
1.0053	168.19	168.19
1.0053	174.33	174.33
1.0053	174.77	174.77
1.0053	182.39	182.39
1.0053	188.80	188.80
1.0053	188.81	188.81
1.0053	188.83	188.83
1.0053	188.88	188.88
1.0053	188.99	188.99
1.0053	189.17	189.17
1.0053	189.48	189.48
1.0053	189.93	189.93
1.0053	190.52	190.52
1.0053	190.79	190.79
1.0053	190.97	190.97
1.0053	191.15	191.15
1.0053	191.57	191.57
1.0053	192.14	192.14
1.0053	192.78	192.78
1.0053	193.70	193.70
1.0053	195.08	195.08
1.0053	196.67	196.67
1.0053	198.13	198.13
1.0053	199.51	199.51
1.0053	199.51	199.51
1.0367	31.122	31.122
1.0367	41.356	41.356
1.0367	51.533	51.533
1.0367	55.265	55.265
1.0367	59.335	59.335
1.0367	64.829	64.829
1.0367	71.008	71.008
1.0367	77.076	77.076
1.0367	82.660	82.660
1.0367	88.530	88.530
1.0367	93.317	93.317
1.0367	95.001	95.001
1.0367	102.11	102.11
1.0367	109.78	109.78
1.0367	115.62	115.62
1.0367	117.63	117.63
1.0367	125.32	125.32
1.0367	126.30	126.30
1.0367	133.10	133.10
1.0367	141.12	141.12
1.0367	141.65	141.65
1.0367	146.02	146.02
1.0367	149.11	149.11
1.0367	156.10	156.10
1.0367	162.51	162.51
1.0367	168.88	168.88
1.0367	175.04	175.04
1.0367	175.50	175.50
1.0367	183.16	183.16
1.0367	192.32	192.32
1.0367	194.70	194.70
1.0367	194.71	194.71
1.0367	194.73	194.73
1.0367	194.78	194.78
1.0367	194.88	194.88
1.0367	195.07	195.07
1.0367	195.38	195.38
1.0367	195.83	195.83
1.0367	196.46	196.46
1.0367	196.89	196.89
1.0367	197.05	197.05
1.0367	197.23	197.23
1.0367	197.93	197.93
1.0367	198.60	198.60
1.0367	198.67	198.67
1.0367	199.42	199.42
1.0367	200.63	200.63
1.0367	201.71	201.71
1.0367	202.69	202.69
1.0367	204.00	204.00
1.0681	31.398	31.398
1.0681	42.324	42.324
1.0681	52.587	52.587
1.0681	56.783	56.783
1.0681	60.717	60.717
1.0681	66.080	66.080
1.0681	72.132	72.132
1.0681	78.017	78.017
1.0681	83.396	83.396
1.0681	89.268	89.268
1.0681	92.664	92.664
1.0681	95.802	95.802
1.0681	102.91	102.91
1.0681	110.54	110.54
1.0681	115.02	115.02
1.0681	118.38	118.38
1.0681	126.10	126.10
1.0681	127.64	127.64
1.0681	133.90	133.90
1.0681	141.98	141.98
1.0681	142.20	142.20
1.0681	145.72	145.72
1.0681	150.19	150.19
1.0681	157.72	157.72
1.0681	163.98	163.98
1.0681	169.73	169.73
1.0681	175.84	175.84
1.0681	176.20	176.20
1.0681	183.95	183.95
1.0681	193.14	193.14
1.0681	197.86	197.86
1.0681	200.60	200.60
1.0681	200.61	200.61
1.0681	200.63	200.63
1.0681	200.68	200.68
1.0681	200.78	200.78
1.0681	200.96	200.96
1.0681	201.25	201.25
1.0681	201.67	201.67
1.0681	202.18	202.18
1.0681	202.58	202.58
1.0681	202.99	202.99
1.0681	203.12	203.12
1.0681	203.24	203.24
1.0681	203.91	203.91
1.0681	204.56	204.56
1.0681	205.34	205.34
1.0681	206.58	206.58
1.0681	208.09	208.09
1.0681	209.37	209.37
1.0996	31.663	31.663
1.0996	43.274	43.274
1.0996	53.647	53.647
1.0996	58.316	58.316
1.0996	62.118	62.118
1.0996	67.350	67.350
1.0996	73.268	73.268
1.0996	78.950	78.950
1.0996	84.140	84.140
1.0996	90.045	90.045
1.0996	92.013	92.013
1.0996	96.629	96.629
1.0996	103.72	103.72
1.0996	111.31	111.31
1.0996	114.42	114.42
1.0996	119.11	119.11
1.0996	126.75	126.75
1.0996	129.08	129.08
1.0996	134.75	134.75
1.0996	142.55	142.55
1.0996	142.81	142.81
1.0996	145.61	145.61
1.0996	151.12	151.12
1.0996	159.01	159.01
1.0996	165.52	165.52
1.0996	170.83	170.83
1.0996	176.80	176.80
1.0996	176.87	176.87
1.0996	184.79	184.79
1.0996	193.92	193.92
1.0996	197.08	197.08
1.0996	203.37	203.37
1.0996	206.50	206.50
1.0996	206.51	206.51
1.0996	206.53	206.53
1.0996	206.58	206.58
1.0996	206.68	206.68
1.0996	206.86	206.86
1.0996	207.15	207.15
1.0996	207.58	207.58
1.0996	208.20	208.20
1.0996	208.71	208.71
1.0996	208.95	208.95
1.0996	209.11	209.11
1.0996	209.29	209.29
1.0996	209.77	209.77
1.0996	210.43	210.43
1.0996	211.11	211.11
1.0996	212.07	212.07
1.0996	212.84	212.84
1.1310	31.917	31.917
1.1310	44.209	44.209
1.1310	54.715	54.715
1.1310	59.862	59.862
1.1310	63.535	63.535
1.1310	68.636	68.636
1.1310	74.414	74.414
1.1310	79.871	79.871
1.1310	84.899	84.899
1.1310	90.859	90.859
1.1310	91.364	91.364
1.1310	97.479	97.479
1.1310	104.54	104.54
1.1310	112.08	112.08
1.1310	113.82	113.82
1.1310	119.83	119.83
1.1310	127.37	127.37
1.1310	130.49	130.49
1.1310	135.64	135.64
1.1310	142.62	142.62
1.1310	143.63	143.63
1.1310	145.78	145.78
1.1310	151.96	151.96
1.1310	160.05	160.05
1.1310	166.86	166.86
1.1310	172.16	172.16
1.1310	177.52	177.52
1.1310	177.98	177.98
1.1310	185.72	185.72
1.1310	194.72	194.72
1.1310	196.33	196.33
1.1310	204.18	204.18
1.1310	208.04	208.04
1.1310	212.41	212.41
1.1310	212.41	212.41
1.1310	212.43	212.43
1.1310	212.48	212.48
1.1310	212.57	212.57
1.1310	212.74	212.74
1.1310	212.98	212.98
1.1310	213.22	213.22
1.1310	213.54	213.54
1.1310	214.12	214.12
1.1310	214.88	214.88
1.1310	215.24	215.24
1.1310	215.40	215.40
1.1310	215.72	215.72
1.1310	216.41	216.41
1.1310	217.06	217.06
1.1310	218.11	218.11
1.1624	32.164	32.164
1.1624	45.128	45.128
1.1624	55.793	55.793
1.1624	61.416	61.416
1.1624	64.966	64.966
1.1624	69.938	69.938
1.1624	75.567	75.567
1.1624	80.774	80.774
1.1624	85.682	85.682
1.1624	90.717	90.717
1.1624	91.710	91.710
1.1624	98.352	98.352
1.1624	105.38	105.38
1.1624	112.86	112.86
1.1624	113.22	113.22
1.1624	120.55	120.55
1.1624	128.00	128.00
1.1624	131.84	131.84
1.1624	136.61	136.61
1.1624	142.43	142.43
1.1624	144.45	144.45
1.1624	146.23	146.23
1.1624	152.75	152.75
1.1624	160.91	160.91
1.1624	167.92	167.92
1.1624	173.56	173.56
1.1624	178.11	178.11
1.1624	179.44	179.44
1.1624	186.79	186.79
1.1624	195.57	195.57
1.1624	195.63	195.63
1.1624	204.95	204.95
1.1624	207.36	207.36
1.1624	214.11	214.11
1.1624	218.31	218.31
1.1624	218.31	218.31
1.1624	218.33	218.33
1.1624	218.38	218.38
1.1624	218.47	218.47
1.1624	218.64	218.64
1.1624	218.92	218.92
1.1624	219.33	219.33
1.1624	219.86	219.86
1.1624	220.12	220.12
1.1624	220.74	220.74
1.1624	221.38	221.38
1.1624	221.51	221.51
1.1624	221.63	221.63
1.1624	222.35	222.35
1.1624	222.92	222.92
1.1938	32.405	32.405
1.1938	46.031	46.031
1.1938	56.881	56.881
1.1938	62.978	62.978
1.1938	66.410	66.410
1.1938	71.254	71.254
1.1938	76.723	76.723
1.1938	81.658	81.658
1.1938	86.495	86.495
1.1938	90.073	90.073
1.1938	92.597	92.597
1.1938	99.247	99.247
1.1938	106.23	106.23
1.1938	112.63	112.63
1.1938	113.64	113.64
1.1938	121.28	121.28
1.1938	128.63	128.63
1.1938	133.11	133.11
1.1938	137.64	137.64
1.1938	142.07	142.07
1.1938	145.28	145.28
1.1938	146.83	146.83
1.1938	153.52	153.52
1.1938	161.67	161.67
1.1938	168.76	168.76
1.1938	174.81	174.81
1.1938	178.65	178.65
1.1938	181.09	181.09
1.1938	188.07	188.07
1.1938	194.98	194.98
1.1938	196.50	196.50
1.1938	205.73	205.73
1.1938	206.68	206.68
1.1938	214.86	214.86
1.1938	221.00	221.00
1.1938	224.21	224.21
1.1938	224.21	224.21
1.1938	224.23	224.23
1.1938	224.28	224.28
1.1938	224.37	224.37
1.1938	224.53	224.53
1.1938	224.78	224.78
1.1938	225.00	225.00
1.1938	225.28	225.28
1.1938	225.83	225.83
1.1938	226.59	226.59
1.1938	227.47	227.47
1.1938	227.54	227.54
1.1938	227.71	227.71
1.1938	228.33	228.33
1.2252	32.642	32.642
1.2252	46.919	46.919
1.2252	57.979	57.979
1.2252	64.547	64.547
1.2252	67.866	67.866
1.2252	72.581	72.581
1.2252	77.877	77.877
1.2252	82.522	82.522
1.2252	87.348	87.348
1.2252	89.431	89.431
1.2252	93.518	93.518
1.2252	100.16	100.16
1.2252	107.10	107.10
1.2252	112.03	112.03
1.2252	114.44	114.44
1.2252	122.00	122.00
1.2252	129.28	129.28
1.2252	134.28	134.28
1.2252	138.75	138.75
1.2252	141.63	141.63
1.2252	146.14	146.14
1.2252	147.52	147.52
1.2252	154.27	154.27
1.2252	162.37	162.37
1.2252	169.48	169.48
1.2252	175.88	175.88
1.2252	179.12	179.12
1.2252	182.73	182.73
1.2252	189.59	189.59
1.2252	194.39	194.39
1.2252	197.55	197.55
1.2252	206.01	206.01
1.2252	206.56	206.56
1.2252	215.58	215.58
1.2252	221.83	221.83
1.2252	226.24	226.24
1.2252	230.11	230.11
1.2252	230.12	230.12
1.2252	230.13	230.13
1.2252	230.18	230.18
1.2252	230.27	230.27
1.2252	230.43	230.43
1.2252	230.70	230.70
1.2252	231.07	231.07
1.2252	231.49	231.49
1.2252	231.80	231.80
1.2252	232.49	232.49
1.2252	233.38	233.38
1.2252	233.71	233.71
1.2252	233.86	233.86
1.2566	32.876	32.876
1.2566	47.792	47.792
1.2566	59.086	59.086
1.2566	66.120	66.120
1.2566	69.332	69.332
1.2566	73.918	73.918
1.2566	79.021	79.021
1.2566	83.371	83.371
1.2566	88.245	88.245
1.2566	88.792	88.792
1.2566	94.470	94.470
1.2566	101.09	101.09
1.2566	107.97	107.97
1.2566	111.44	111.44
1.2566	115.24	115.24
1.2566	122.73	122.73
1.2566	129.94	129.94
1.2566	135.38	135.38
1.2566	139.92	139.92
1.2566	141.15	141.15
1.2566	147.01	147.01
1.2566	148.26	148.26
1.2566	155.02	155.02
1.2566	163.03	163.03
1.2566	170.13	170.13
1.2566	176.81	176.81
1.2566	179.51	179.51
1.2566	184.18	184.18
1.2566	191.29	191.29
1.2566	193.88	193.88
1.2566	198.78	198.78
1.2566	205.33	205.33
1.2566	207.45	207.45
1.2566	216.31	216.31
1.2566	222.59	222.59
1.2566	227.37	227.37
1.2566	232.71	232.71
1.2566	236.02	236.02
1.2566	236.02	236.02
1.2566	236.04	236.04
1.2566	236.08	236.08
1.2566	236.17	236.17
1.2566	236.33	236.33
1.2566	236.59	236.59
1.2566	236.98	236.98
1.2566	237.54	237.54
1.2566	238.27	238.27
1.2566	239.15	239.15
1.2566	239.89	239.89
1.2566	239.98	239.98
1.2881	33.108	33.108
1.2881	48.651	48.651
1.2881	60.203	60.203
1.2881	67.697	67.697
1.2881	70.807	70.807
1.2881	75.263	75.263
1.2881	80.147	80.147
1.2881	84.215	84.215
1.2881	88.155	88.155
1.2881	89.188	89.188
1.2881	95.451	95.451
1.2881	102.05	102.05
1.2881	108.86	108.86
1.2881	110.85	110.85
1.2881	116.05	116.05
1.2881	123.47	123.47
1.2881	130.63	130.63
1.2881	136.40	136.40
1.2881	140.64	140.64
1.2881	141.14	141.14
1.2881	147.92	147.92
1.2881	149.03	149.03
1.2881	155.77	155.77
1.2881	163.67	163.67
1.2881	170.76	170.76
1.2881	177.66	177.66
1.2881	179.79	179.79
1.2881	185.42	185.42
1.2881	192.99	192.99
1.2881	193.46	193.46
1.2881	200.23	200.23
1.2881	204.68	204.68
1.2881	208.45	208.45
1.2881	217.07	217.07
1.2881	223.33	223.33
1.2881	228.46	228.46
1.2881	233.79	233.79
1.2881	241.34	241.34
1.2881	241.92	241.92
1.2881	241.92	241.92
1.2881	241.94	241.94
1.2881	241.98	241.98
1.2881	242.07	242.07
1.2881	242.24	242.24
1.2881	242.50	242.50
1.2881	242.88	242.88
1.2881	243.43	243.43
1.2881	244.17	244.17
1.2881	245.08	245.08
1.2881	246.08	246.08
1.3195	33.340	33.340
1.3195	49.495	49.495
1.3195	61.328	61.328
1.3195	69.278	69.278
1.3195	72.289	72.289
1.3195	76.614	76.614
1.3195	81.242	81.242
1.3195	85.069	85.069
1.3195	87.521	87.521
1.3195	90.177	90.177
1.3195	96.459	96.459
1.3195	103.01	103.01
1.3195	109.76	109.76
1.3195	110.27	110.27
1.3195	116.87	116.87
1.3195	124.22	124.22
1.3195	131.33	131.33
1.3195	137.37	137.37
1.3195	140.12	140.12
1.3195	142.38	142.38
1.3195	148.86	148.86
1.3195	149.81	149.81
1.3195	156.52	156.52
1.3195	164.30	164.30
1.3195	171.38	171.38
1.3195	178.46	178.46
1.3195	179.97	179.97
1.3195	186.49	186.49
1.3195	193.12	193.12
1.3195	194.54	194.54
1.3195	201.87	201.87
1.3195	204.03	204.03
1.3195	209.60	209.60
1.3195	217.89	217.89
1.3195	224.06	224.06
1.3195	229.52	229.52
1.3195	234.90	234.90
1.3195	242.37	242.37
1.3195	247.58	247.58
1.3195	247.82	247.82
1.3195	247.83	247.83
1.3195	247.84	247.84
1.3195	247.88	247.88
1.3195	247.97	247.97
1.3195	248.13	248.13
1.3195	248.38	248.38
1.3195	248.75	248.75
1.3195	249.28	249.28
1.3195	249.99	249.99
1.3195	250.85	250.85
1.3509	33.573	33.573
1.3509	50.325	50.325
1.3509	62.460	62.460
1.3509	70.863	70.863
1.3509	73.778	73.778
1.3509	77.965	77.965
1.3509	82.294	82.294
1.3509	85.953	85.953
1.3509	86.889	86.889
1.3509	91.210	91.210
1.3509	97.492	97.492
1.3509	104.00	104.00
1.3509	109.68	109.68
1.3509	110.67	110.67
1.3509	117.70	117.70
1.3509	124.97	124.97
1.3509	132.05	132.05
1.3509	138.31	138.31
1.3509	139.58	139.58
1.3509	143.63	143.63
1.3509	149.84	149.84
1.3509	150.61	150.61
1.3509	157.27	157.27
1.3509	164.92	164.92
1.3509	172.00	172.00
1.3509	179.25	179.25
1.3509	180.02	180.02
1.3509	187.45	187.45
1.3509	192.89	192.89
1.3509	195.87	195.87
1.3509	203.42	203.42
1.3509	203.57	203.57
1.3509	210.94	210.94
1.3509	218.78	218.78
1.3509	224.81	224.81
1.3509	230.56	230.56
1.3509	236.04	236.04
1.3509	243.33	243.33
1.3509	247.09	247.09
1.3509	252.94	252.94
1.3509	253.73	253.73
1.3509	253.73	253.73
1.3509	253.75	253.75
1.3509	253.79	253.79
1.3509	253.87	253.87
1.3509	254.03	254.03
1.3509	254.28	254.28
1.3509	254.65	254.65
1.3509	255.18	255.18
1.3509	255.89	255.89
1.3823	33.807	33.807
1.3823	51.142	51.142
1.3823	63.598	63.598
1.3823	72.449	72.449
1.3823	75.272	75.272
1.3823	79.312	79.312
1.3823	83.294	83.294
1.3823	86.259	86.259
1.3823	86.888	86.888
1.3823	92.282	92.282
1.3823	98.547	98.547
1.3823	104.99	104.99
1.3823	109.10	109.10
1.3823	111.58	111.58
1.3823	118.53	118.53
1.3823	125.74	125.74
1.3823	132.79	132.79
1.3823	139.05	139.05
1.3823	139.22	139.22
1.3823	144.86	144.86
1.3823	150.86	150.86
1.3823	151.42	151.42
1.3823	158.03	158.03
1.3823	165.53	165.53
1.3823	172.62	172.62
1.3823	179.94	179.94
1.3823	180.02	180.02
1.3823	188.34	188.34
1.3823	192.74	192.74
1.3823	197.01	197.01
1.3823	202.84	202.84
1.3823	205.16	205.16
1.3823	212.47	212.47
1.3823	219.78	219.78
1.3823	225.61	225.61
1.3823	231.60	231.60
1.3823	237.21	237.21
1.3823	244.28	244.28
1.3823	246.41	246.41
1.3823	253.96	253.96
1.3823	258.32	258.32
1.3823	258.48	258.48
1.3823	259.20	259.20
1.3823	259.63	259.63
1.3823	259.63	259.63
1.3823	259.65	259.65
1.3823	259.69	259.69
1.3823	259.77	259.77
1.3823	259.92	259.92
1.3823	260.17	260.17
1.4137	34.044	34.044
1.4137	51.945	51.945
1.4137	64.741	64.741
1.4137	74.039	74.039
1.4137	76.770	76.770
1.4137	80.646	80.646
1.4137	84.242	84.242
1.4137	85.632	85.632
1.4137	87.889	87.889
1.4137	93.390	93.390
1.4137	99.622	99.622
1.4137	106.00	106.00
1.4137	108.53	108.53
1.4137	112.51	112.51
1.4137	119.38	119.38
1.4137	126.52	126.52
1.4137	133.55	133.55
1.4137	138.50	138.50
1.4137	140.12	140.12
1.4137	146.06	146.06
1.4137	151.92	151.92
1.4137	152.23	152.23
1.4137	158.80	158.80
1.4137	166.14	166.14
1.4137	173.26	173.26
1.4137	179.73	179.73
1.4137	180.78	180.78
1.4137	189.20	189.20
1.4137	192.66	192.66
1.4137	198.03	198.03
1.4137	202.32	202.32
1.4137	206.56	206.56
1.4137	214.10	214.10
1.4137	220.93	220.93
1.4137	226.49	226.49
1.4137	232.66	232.66
1.4137	238.42	238.42
1.4137	245.27	245.27
1.4137	245.54	245.54
1.4137	254.89	254.89
1.4137	256.61	256.61
1.4137	257.66	257.66
1.4137	257.67	257.67
1.4137	259.23	259.23
1.4137	261.08	261.08
1.4137	263.50	263.50
1.4137	265.11	265.11
1.4137	265.53	265.53
1.4137	265.54	265.54
1.4137	265.55	265.55
1.4451	34.284	34.284
1.4451	52.736	52.736
1.4451	65.888	65.888
1.4451	75.629	75.629
1.4451	78.270	78.270
1.4451	81.954	81.954
1.4451	85.007	85.007
1.4451	85.152	85.152
1.4451	88.960	88.960
1.4451	94.528	94.528
1.4451	100.72	100.72
1.4451	107.02	107.02
1.4451	107.95	107.95
1.4451	113.44	113.44
1.4451	120.23	120.23
1.4451	127.32	127.32
1.4451	134.33	134.33
1.4451	137.96	137.96
1.4451	141.02	141.02
1.4451	147.24	147.24
1.4451	153.03	153.03
1.4451	153.05	153.05
1.4451	159.57	159.57
1.4451	166.76	166.76
1.4451	173.92	173.92
1.4451	179.42	179.42
1.4451	181.55	181.55
1.4451	190.03	190.03
1.4451	192.63	192.63
1.4451	198.96	198.96
1.4451	201.88	201.88
1.4451	207.76	207.76
1.4451	215.65	215.65
1.4451	222.22	222.22
1.4451	227.50	227.50
1.4451	233.77	233.77
1.4451	239.66	239.66
1.4451	244.53	244.53
1.4451	246.29	246.29
1.4451	254.87	254.87
1.4451	255.80	255.80
1.4451	256.00	256.00
1.4451	256.82	256.82
1.4451	257.76	257.76
1.4451	259.89	259.89
1.4451	262.21	262.21
1.4451	265.20	265.20
1.4451	266.17	266.17
1.4451	269.00	269.00
1.4451	271.44	271.44
1.4765	34.527	34.527
1.4765	53.513	53.513
1.4765	67.038	67.038
1.4765	77.221	77.221
1.4765	79.769	79.769
1.4765	83.213	83.213
1.4765	84.385	84.385
1.4765	86.057	86.057
1.4765	90.097	90.097
1.4765	95.695	95.695
1.4765	101.83	101.83
1.4765	107.38	107.38
1.4765	108.06	108.06
1.4765	114.38	114.38
1.4765	121.09	121.09
1.4765	128.13	128.13
1.4765	135.13	135.13
1.4765	137.41	137.41
1.4765	141.91	141.91
1.4765	148.38	148.38
1.4765	153.88	153.88
1.4765	154.17	154.17
1.4765	160.35	160.35
1.4765	167.37	167.37
1.4765	174.60	174.60
1.4765	179.00	179.00
1.4765	182.33	182.33
1.4765	190.85	190.85
1.4765	192.60	192.60
1.4765	199.84	199.84
1.4765	201.53	201.53
1.4765	208.81	208.81
1.4765	217.04	217.04
1.4765	223.56	223.56
1.4765	228.67	228.67
1.4765	234.96	234.96
1.4765	240.94	240.94
1.4765	243.40	243.40
1.4765	247.37	247.37
1.4765	253.13	253.13
1.4765	254.29	254.29
1.4765	255.95	255.95
1.4765	256.14	256.14
1.4765	256.76	256.76
1.4765	258.51	258.51
1.4765	261.07	261.07
1.4765	263.85	263.85
1.4765	267.11	267.11
1.4765	267.42	267.42
1.4765	271.74	271.74
1.5080	34.774	34.774
1.5080	54.278	54.278
1.5080	68.189	68.189
1.5080	78.814	78.814
1.5080	81.263	81.263
1.5080	83.766	83.766
1.5080	84.393	84.393
1.5080	87.006	87.006
1.5080	91.291	91.291
1.5080	96.885	96.885
1.5080	102.95	102.95
1.5080	106.82	106.82
1.5080	109.10	109.10
1.5080	115.33	115.33
1.5080	121.97	121.97
1.5080	128.95	128.95
1.5080	135.95	135.95
1.5080	136.87	136.87
1.5080	142.81	142.81
1.5080	149.48	149.48
1.5080	154.71	154.71
1.5080	155.35	155.35
1.5080	161.14	161.14
1.5080	168.00	168.00
1.5080	175.29	175.29
1.5080	178.49	178.49
1.5080	183.12	183.12
1.5080	191.67	191.67
1.5080	192.54	192.54
1.5080	200.69	200.69
1.5080	201.30	201.30
1.5080	209.76	209.76
1.5080	218.22	218.22
1.5080	224.83	224.83
1.5080	230.01	230.01
1.5080	236.29	236.29
1.5080	242.19	242.19
1.5080	242.27	242.27
1.5080	248.51	248.51
1.5080	251.38	251.38
1.5080	252.56	252.56
1.5080	254.46	254.46
1.5080	255.10	255.10
1.5080	256.96	256.96
1.5080	257.72	257.72
1.5080	259.81	259.81
1.5080	262.69	262.69
1.5080	265.99	265.99
1.5080	268.03	268.03
1.5080	270.12	270.12
1.5394	35.027	35.027
1.5394	55.031	55.031
1.5394	69.340	69.340
1.5394	80.407	80.407
1.5394	82.741	82.741
1.5394	83.148	83.148
1.5394	85.469	85.469
1.5394	88.049	88.049
1.5394	92.530	92.530
1.5394	98.096	98.096
1.5394	104.10	104.10
1.5394	106.25	106.25
1.5394	110.15	110.15
1.5394	116.28	116.28
1.5394	122.85	122.85
1.5394	129.80	129.80
1.5394	136.32	136.32
1.5394	136.78	136.78
1.5394	143.70	143.70
1.5394	150.55	150.55
1.5394	155.54	155.54
1.5394	156.56	156.56
1.5394	161.94	161.94
1.5394	168.63	168.63
1.5394	176.00	176.00
1.5394	177.91	177.91
1.5394	183.91	183.91
1.5394	192.41	192.41
1.5394	192.48	192.48
1.5394	201.21	201.21
1.5394	201.51	201.51
1.5394	210.65	210.65
1.5394	219.24	219.24
1.5394	225.96	225.96
1.5394	231.43	231.43
1.5394	237.76	237.76
1.5394	240.91	240.91
1.5394	243.66	243.66
1.5394	249.64	249.64
1.5394	249.73	249.73
1.5394	250.83	250.83
1.5394	252.74	252.74
1.5394	254.23	254.23
1.5394	255.31	255.31
1.5394	258.35	258.35
1.5394	258.72	258.72
1.5394	261.54	261.54
1.5394	264.74	264.74
1.5394	268.60	268.60
1.5394	268.96	268.96
1.5708	35.284	35.284
1.5708	55.772	55.772
1.5708	70.490	70.490
1.5708	81.998	81.998
1.5708	82.533	82.533
1.5708	84.186	84.186
1.5708	86.449	86.449
1.5708	89.206	89.206
1.5708	93.805	93.805
1.5708	99.326	99.326
1.5708	105.25	105.25
1.5708	105.69	105.69
1.5708	111.20	111.20
1.5708	117.24	117.24
1.5708	123.75	123.75
1.5708	130.66	130.66
1.5708	135.77	135.77
1.5708	137.64	137.64
1.5708	144.61	144.61
1.5708	151.60	151.60
1.5708	156.38	156.38
1.5708	157.79	157.79
1.5708	162.75	162.75
1.5708	169.28	169.28
1.5708	176.74	176.74
1.5708	177.28	177.28
1.5708	184.71	184.71
1.5708	192.19	192.19
1.5708	193.30	193.30
1.5708	201.28	201.28
1.5708	202.33	202.33
1.5708	211.50	211.50
1.5708	220.16	220.16
1.5708	226.94	226.94
1.5708	232.81	232.81
1.5708	239.35	239.35
1.5708	239.58	239.58
1.5708	245.14	245.14
1.5708	247.90	247.90
1.5708	249.09	249.09
1.5708	251.02	251.02
1.5708	251.04	251.04
1.5708	253.36	253.36
1.5708	253.62	253.62
1.5708	256.77	256.77
1.5708	259.78	259.78
1.5708	260.21	260.21
1.5708	263.60	263.60
1.5708	267.23	267.23
1.5708	269.91	269.91
1.6022	35.546	35.546
1.6022	56.501	56.501
1.6022	71.637	71.637
1.6022	81.921	81.921
1.6022	83.585	83.585
1.6022	85.555	85.555
1.6022	87.402	87.402
1.6022	90.467	90.467
1.6022	95.110	95.110
1.6022	100.57	100.57
1.6022	105.14	105.14
1.6022	106.41	106.41
1.6022	112.26	112.26
1.6022	118.21	118.21
1.6022	124.66	124.66
1.6022	131.53	131.53
1.6022	135.23	135.23
1.6022	138.51	138.51
1.6022	145.52	145.52
1.6022	152.62	152.62
1.6022	157.22	157.22
1.6022	159.02	159.02
1.6022	163.57	163.57
1.6022	169.94	169.94
1.6022	176.60	176.60
1.6022	177.49	177.49
1.6022	185.53	185.53
1.6022	191.86	191.86
1.6022	194.12	194.12
1.6022	201.50	201.50
1.6022	203.15	203.15
1.6022	212.32	212.32
1.6022	221.00	221.00
1.6022	227.83	227.83
1.6022	234.07	234.07
1.6022	238.22	238.22
1.6022	240.97	240.97
1.6022	246.16	246.16
1.6022	246.73	246.73
1.6022	247.35	247.35
1.6022	249.29	249.29
1.6022	251.91	251.91
1.6022	252.34	252.34
1.6022	252.59	252.59
1.6022	255.11	255.11
1.6022	258.72	258.72
1.6022	260.91	260.91
1.6022	262.41	262.41
1.6022	266.00	266.00
1.6022	270.17	270.17
1.6336	35.814	35.814
1.6336	57.218	57.218
1.6336	72.781	72.781
1.6336	81.311	81.311
1.6336	85.158	85.158
1.6336	86.771	86.771
1.6336	88.449	88.449
1.6336	91.801	91.801
1.6336	96.437	96.437
1.6336	101.83	101.83
1.6336	104.59	104.59
1.6336	107.59	107.59
1.6336	113.33	113.33
1.6336	119.18	119.18
1.6336	125.58	125.58
1.6336	132.43	132.43
1.6336	134.68	134.68
1.6336	139.40	139.40
1.6336	146.44	146.44
1.6336	153.63	153.63
1.6336	158.06	158.06
1.6336	160.26	160.26
1.6336	164.41	164.41
1.6336	170.62	170.62
1.6336	175.88	175.88
1.6336	178.27	178.27
1.6336	186.36	186.36
1.6336	191.44	191.44
1.6336	194.95	194.95
1.6336	201.86	201.86
1.6336	203.96	203.96
1.6336	213.13	213.13
1.6336	221.81	221.81
1.6336	228.66	228.66
1.6336	235.22	235.22
1.6336	236.83	236.83
1.6336	242.51	242.51
1.6336	244.42	244.42
1.6336	245.62	245.62
1.6336	247.56	247.56
1.6336	248.38	248.38
1.6336	250.19	250.19
1.6336	251.56	251.56
1.6336	253.42	253.42
1.6336	254.03	254.03
1.6336	257.12	257.12
1.6336	261.04	261.04
1.6336	262.14	262.14
1.6336	264.84	264.84
1.6336	268.81	268.81
1.6650	36.087	36.087
1.6650	57.924	57.924
1.6650	73.919	73.919
1.6650	80.703	80.703
1.6650	86.686	86.686
1.6650	87.802	87.802
1.6650	89.683	89.683
1.6650	93.184	93.184
1.6650	97.784	97.784
1.6650	103.11	103.11
1.6650	104.04	104.04
1.6650	108.77	108.77
1.6650	114.40	114.40
1.6650	120.16	120.16
1.6650	126.52	126.52
1.6650	133.34	133.34
1.6650	134.13	134.13
1.6650	140.31	140.31
1.6650	147.36	147.36
1.6650	154.62	154.62
1.6650	158.91	158.91
1.6650	161.49	161.49
1.6650	165.26	165.26
1.6650	171.32	171.32
1.6650	175.13	175.13
1.6650	179.06	179.06
1.6650	187.20	187.20
1.6650	190.93	190.93
1.6650	195.78	195.78
1.6650	202.34	202.34
1.6650	204.78	204.78
1.6650	213.93	213.93
1.6650	222.58	222.58
1.6650	229.45	229.45
1.6650	235.42	235.42
1.6650	236.28	236.28
1.6650	242.68	242.68
1.6650	243.89	243.89
1.6650	243.94	243.94
1.6650	245.83	245.83
1.6650	248.47	248.47
1.6650	250.04	250.04
1.6650	250.66	250.66
1.6650	251.71	251.71
1.6650	255.46	255.46
1.6650	255.70	255.70
1.6650	259.53	259.53
1.6650	263.48	263.48
1.6650	263.61	263.61
1.6650	267.57	267.57
1.6965	36.366	36.366
1.6965	58.618	58.618
1.6965	75.050	75.050
1.6965	80.098	80.098
1.6965	88.019	88.019
1.6965	88.856	88.856
1.6965	91.069	91.069
1.6965	94.601	94.601
1.6965	99.147	99.147
1.6965	103.49	103.49
1.6965	104.40	104.40
1.6965	109.96	109.96
1.6965	115.47	115.47
1.6965	121.14	121.14
1.6965	127.47	127.47
1.6965	133.59	133.59
1.6965	134.27	134.27
1.6965	141.24	141.24
1.6965	148.30	148.30
1.6965	155.60	155.60
1.6965	159.76	159.76
1.6965	162.70	162.70
1.6965	166.14	166.14
1.6965	172.04	172.04
1.6965	174.36	174.36
1.6965	179.88	179.88
1.6965	188.05	188.05
1.6965	190.35	190.35
1.6965	196.63	196.63
1.6965	202.91	202.91
1.6965	205.60	205.60
1.6965	214.72	214.72
1.6965	223.33	223.33
1.6965	230.22	230.22
1.6965	234.00	234.00
1.6965	237.27	237.27
1.6965	240.95	240.95
1.6965	242.15	242.15
1.6965	244.10	244.10
1.6965	245.23	245.23
1.6965	246.74	246.74
1.6965	249.74	249.74
1.6965	249.99	249.99
1.6965	251.66	251.66
1.6965	253.77	253.77
1.6965	257.44	257.44
1.6965	257.94	257.94
1.6965	262.23	262.23
1.6965	264.96	264.96
1.6965	266.36	266.36
1.7279	36.652	36.652
1.7279	59.301	59.301
1.7279	76.171	76.171
1.7279	79.496	79.496
1.7279	88.942	88.942
1.7279	90.233	90.233
1.7279	92.535	92.535
1.7279	96.041	96.041
1.7279	100.52	100.52
1.7279	102.95	102.95
1.7279	105.69	105.69
1.7279	111.16	111.16
1.7279	116.54	116.54
1.7279	122.14	122.14
1.7279	128.44	128.44
1.7279	133.04	133.04
1.7279	135.22	135.22
1.7279	142.17	142.17
1.7279	149.24	149.24
1.7279	156.57	156.57
1.7279	160.61	160.61
1.7279	163.88	163.88
1.7279	167.05	167.05
1.7279	172.79	172.79
1.7279	173.57	173.57
1.7279	180.72	180.72
1.7279	188.92	188.92
1.7279	189.71	189.71
1.7279	197.48	197.48
1.7279	203.57	203.57
1.7279	206.42	206.42
1.7279	215.51	215.51
1.7279	224.08	224.08
1.7279	230.99	230.99
1.7279	232.57	232.57
1.7279	238.22	238.22
1.7279	239.22	239.22
1.7279	240.43	240.43
1.7279	242.38	242.38
1.7279	245.01	245.01
1.7279	246.43	246.43
1.7279	248.27	248.27
1.7279	248.82	248.82
1.7279	252.07	252.07
1.7279	253.17	253.17
1.7279	256.29	256.29
1.7279	259.17	259.17
1.7279	260.73	260.73
1.7279	265.09	265.09
1.7279	266.57	266.57
1.7593	36.943	36.943
1.7593	59.972	59.972
1.7593	77.282	77.282
1.7593	78.895	78.895
1.7593	89.662	89.662
1.7593	91.773	91.773
1.7593	94.042	94.042
1.7593	97.497	97.497
1.7593	101.91	101.91
1.7593	102.41	102.41
1.7593	107.00	107.00
1.7593	112.36	112.36
1.7593	117.62	117.62
1.7593	123.15	123.15
1.7593	129.42	129.42
1.7593	132.50	132.50
1.7593	136.19	136.19
1.7593	143.13	143.13
1.7593	150.19	150.19
1.7593	157.53	157.53
1.7593	161.46	161.46
1.7593	165.01	165.01
1.7593	168.00	168.00
1.7593	172.77	172.77
1.7593	173.57	173.57
1.7593	181.57	181.57
1.7593	189.03	189.03
1.7593	189.79	189.79
1.7593	198.34	198.34
1.7593	204.28	204.28
1.7593	207.25	207.25
1.7593	216.31	216.31
1.7593	224.82	224.82
1.7593	231.14	231.14
1.7593	231.75	231.75
1.7593	237.49	237.49
1.7593	238.70	238.70
1.7593	239.13	239.13
1.7593	240.65	240.65
1.7593	243.29	243.29
1.7593	246.55	246.55
1.7593	247.53	247.53
1.7593	247.90	247.90
1.7593	250.36	250.36
1.7593	254.60	254.60
1.7593	254.61	254.61
1.7593	259.15	259.15
1.7593	260.84	260.84
1.7593	263.72	263.72
1.7593	268.11	268.11
1.7907	37.240	37.240
1.7907	60.633	60.633
1.7907	78.297	78.297
1.7907	78.380	78.380
1.7907	90.329	90.329
1.7907	93.354	93.354
1.7907	95.570	95.570
1.7907	98.967	98.967
1.7907	101.88	101.88
1.7907	103.31	103.31
1.7907	108.31	108.31
1.7907	113.56	113.56
1.7907	118.69	118.69
1.7907	124.17	124.17
1.7907	130.43	130.43
1.7907	131.96	131.96
1.7907	137.18	137.18
1.7907	144.10	144.10
1.7907	151.15	151.15
1.7907	158.50	158.50
1.7907	162.31	162.31
1.7907	166.10	166.10
1.7907	168.98	168.98
1.7907	171.95	171.95
1.7907	174.39	174.39
1.7907	182.45	182.45
1.7907	188.32	188.32
1.7907	190.68	190.68
1.7907	199.21	199.21
1.7907	205.05	205.05
1.7907	208.08	208.08
1.7907	217.10	217.10
1.7907	225.56	225.56
1.7907	229.70	229.70
1.7907	232.51	232.51
1.7907	235.77	235.77
1.7907	236.97	236.97
1.7907	238.93	238.93
1.7907	240.03	240.03
1.7907	241.57	241.57
1.7907	244.83	244.83
1.7907	246.95	246.95
1.7907	248.62	248.62
1.7907	248.64	248.64
1.7907	252.91	252.91
1.7907	255.95	255.95
1.7907	257.52	257.52
1.7907	262.24	262.24
1.7907	262.40	262.40
1.7907	266.82	266.82
1.8221	37.544	37.544
1.8221	61.283	61.283
1.8221	77.702	77.702
1.8221	79.462	79.462
1.8221	90.983	90.983
1.8221	94.950	94.950
1.8221	97.112	97.112
1.8221	100.45	100.45
1.8221	101.35	101.35
1.8221	104.72	104.72
1.8221	109.64	109.64
1.8221	114.76	114.76
1.8221	119.76	119.76
1.8221	125.20	125.20
1.8221	131.42	131.42
1.8221	131.45	131.45
1.8221	138.18	138.18
1.8221	145.08	145.08
1.8221	152.11	152.11
1.8221	159.45	159.45
1.8221	163.16	163.16
1.8221	167.13	167.13
1.8221	170.02	170.02
1.8221	171.13	171.13
1.8221	175.24	175.24
1.8221	183.34	183.34
1.8221	187.58	187.58
1.8221	191.59	191.59
1.8221	200.09	200.09
1.8221	205.86	205.86
1.8221	208.93	208.93
1.8221	217.90	217.90
1.8221	226.30	226.30
1.8221	228.27	228.27
1.8221	233.28	233.28
1.8221	234.04	234.04
1.8221	235.25	235.25
1.8221	237.21	237.21
1.8221	239.84	239.84
1.8221	240.92	240.92
1.8221	243.10	243.10
1.8221	246.01	246.01
1.8221	246.92	246.92
1.8221	249.64	249.64
1.8221	251.21	251.21
1.8221	255.85	255.85
1.8221	257.25	257.25
1.8221	260.68	260.68
1.8221	263.87	263.87
1.8221	265.44	265.44
1.8535	37.854	37.854
1.8535	61.922	61.922
1.8535	77.109	77.109
1.8535	80.526	80.526
1.8535	91.641	91.641
1.8535	96.552	96.552
1.8535	98.664	98.664
1.8535	100.82	100.82
1.8535	101.94	101.94
1.8535	106.14	106.14
1.8535	110.96	110.96
1.8535	115.96	115.96
1.8535	120.84	120.84
1.8535	126.25	126.25
1.8535	130.88	130.88
1.8535	132.49	132.49
1.8535	139.20	139.20
1.8535	146.07	146.07
1.8535	153.08	153.08
1.8535	160.41	160.41
1.8535	164.01	164.01
1.8535	168.12	168.12
1.8535	170.30	170.30
1.8535	171.09	171.09
1.8535	176.13	176.13
1.8535	184.25	184.25
1.8535	186.82	186.82
1.8535	192.50	192.50
1.8535	200.99	200.99
1.8535	206.69	206.69
1.8535	209.78	209.78
1.8535	218.70	218.70
1.8535	226.84	226.84
1.8535	227.04	227.04
1.8535	232.32	232.32
1.8535	233.53	233.53
1.8535	234.05	234.05
1.8535	235.49	235.49
1.8535	238.13	238.13
1.8535	241.39	241.39
1.8535	241.80	241.80
1.8535	245.06	245.06
1.8535	245.20	245.20
1.8535	249.50	249.50
1.8535	250.63	250.63
1.8535	254.17	254.17
1.8535	258.49	258.49
1.8535	259.08	259.08
1.8535	263.99	263.99
1.8535	265.25	265.25
1.8850	38.170	38.170
1.8850	62.551	62.551
1.8850	76.518	76.518
1.8850	81.570	81.570
1.8850	92.311	92.311
1.8850	98.158	98.158
1.8850	100.22	100.22
1.8850	100.30	100.30
1.8850	103.43	103.43
1.8850	107.56	107.56
1.8850	112.29	112.29
1.8850	117.16	117.16
1.8850	121.92	121.92
1.8850	127.31	127.31
1.8850	130.34	130.34
1.8850	133.55	133.55
1.8850	140.23	140.23
1.8850	147.08	147.08
1.8850	154.06	154.06
1.8850	161.36	161.36
1.8850	164.86	164.86
1.8850	169.06	169.06
1.8850	169.46	169.46
1.8850	172.19	172.19
1.8850	177.05	177.05
1.8850	185.18	185.18
1.8850	186.05	186.05
1.8850	193.43	193.43
1.8850	201.89	201.89
1.8850	207.55	207.55
1.8850	210.64	210.64
1.8850	219.50	219.50
1.8850	225.41	225.41
1.8850	227.78	227.78
1.8850	230.60	230.60
1.8850	231.82	231.82
1.8850	233.77	233.77
1.8850	234.83	234.83
1.8850	236.41	236.41
1.8850	239.67	239.67
1.8850	242.66	242.66
1.8850	243.49	243.49
1.8850	244.13	244.13
1.8850	247.79	247.79
1.8850	251.61	251.61
1.8850	252.48	252.48
1.8850	257.44	257.44
1.8850	259.69	259.69
1.8850	262.48	262.48
1.8850	266.59	266.59
1.9164	38.492	38.492
1.9164	63.169	63.169
1.9164	75.930	75.930
1.9164	82.591	82.591
1.9164	93.000	93.000
1.9164	99.767	99.767
1.9164	99.781	99.781
1.9164	101.78	101.78
1.9164	104.94	104.94
1.9164	108.99	108.99
1.9164	113.63	113.63
1.9164	118.35	118.35
1.9164	123.00	123.00
1.9164	128.39	128.39
1.9164	129.80	129.80
1.9164	134.63	134.63
1.9164	141.28	141.28
1.9164	148.10	148.10
1.9164	155.05	155.05
1.9164	162.32	162.32
1.9164	165.68	165.68
1.9164	168.64	168.64
1.9164	169.97	169.97
1.9164	173.31	173.31
1.9164	178.01	178.01
1.9164	185.27	185.27
1.9164	186.13	186.13
1.9164	194.37	194.37
1.9164	202.80	202.80
1.9164	208.43	208.43
1.9164	211.50	211.50
1.9164	220.31	220.31
1.9164	224.00	224.00
1.9164	228.53	228.53
1.9164	228.89	228.89
1.9164	230.10	230.10
1.9164	232.06	232.06
1.9164	234.70	234.70
1.9164	235.62	235.62
1.9164	237.95	237.95
1.9164	241.77	241.77
1.9164	243.04	243.04
1.9164	243.67	243.67
1.9164	246.08	246.08
1.9164	250.78	250.78
1.9164	252.57	252.57
1.9164	255.78	255.78
1.9164	260.85	260.85
1.9164	260.91	260.91
1.9164	265.96	265.96
1.9478	38.819	38.819
1.9478	63.777	63.777
1.9478	75.344	75.344
1.9478	83.587	83.587
1.9478	93.713	93.713
1.9478	99.266	99.266
1.9478	101.38	101.38
1.9478	103.35	103.35
1.9478	106.44	106.44
1.9478	110.42	110.42
1.9478	114.96	114.96
1.9478	119.53	119.53
1.9478	124.09	124.09
1.9478	129.26	129.26
1.9478	129.50	129.50
1.9478	135.72	135.72
1.9478	142.35	142.35
1.9478	149.12	149.12
1.9478	156.04	156.04
1.9478	163.27	163.27
1.9478	166.45	166.45
1.9478	167.87	167.87
1.9478	170.85	170.85
1.9478	174.44	174.44
1.9478	179.02	179.02
1.9478	184.47	184.47
1.9478	187.10	187.10
1.9478	195.32	195.32
1.9478	203.73	203.73
1.9478	209.31	209.31
1.9478	212.38	212.38
1.9478	221.13	221.13
1.9478	222.60	222.60
1.9478	227.17	227.17
1.9478	228.39	228.39
1.9478	229.29	229.29
1.9478	230.35	230.35
1.9478	232.99	232.99
1.9478	236.24	236.24
1.9478	236.41	236.41
1.9478	240.06	240.06
1.9478	242.15	242.15
1.9478	244.37	244.37
1.9478	244.48	244.48
1.9478	249.09	249.09
1.9478	253.52	253.52
1.9478	254.12	254.12
1.9478	259.31	259.31
1.9478	261.99	261.99
1.9478	264.48	264.48
1.9792	39.153	39.153
1.9792	64.375	64.375
1.9792	74.761	74.761
1.9792	84.556	84.556
1.9792	94.453	94.453
1.9792	98.754	98.754
1.9792	102.99	102.99
1.9792	104.92	104.92
1.9792	107.96	107.96
1.9792	111.86	111.86
1.9792	116.29	116.29
1.9792	120.70	120.70
1.9792	125.20	125.20
1.9792	128.72	128.72
1.9792	130.62	130.62
1.9792	136.83	136.83
1.9792	143.43	143.43
1.9792	150.16	150.16
1.9792	157.04	157.04
1.9792	164.23	164.23
1.9792	166.64	166.64
1.9792	167.67	167.67
1.9792	171.73	171.73
1.9792	175.57	175.57
1.9792	180.06	180.06
1.9792	183.68	183.68
1.9792	188.08	188.08
1.9792	196.29	196.29
1.9792	204.66	204.66
1.9792	210.20	210.20
1.9792	213.26	213.26
1.9792	221.23	221.23
1.9792	221.95	221.95
1.9792	225.46	225.46
1.9792	226.68	226.68
1.9792	228.65	228.65
1.9792	230.05	230.05
1.9792	231.28	231.28
1.9792	234.54	234.54
1.9792	237.22	237.22
1.9792	238.35	238.35
1.9792	241.19	241.19
1.9792	242.66	242.66
1.9792	245.35	245.35
1.9792	247.39	247.39
1.9792	252.44	252.44
1.9792	254.46	254.46
1.9792	257.69	257.69
1.9792	262.96	262.96
1.9792	263.10	263.10
2.0106	39.493	39.493
2.0106	64.963	64.963
2.0106	74.179	74.179
2.0106	85.495	85.495
2.0106	95.224	95.224
2.0106	98.246	98.246
2.0106	104.60	104.60
2.0106	106.50	106.50
2.0106	109.47	109.47
2.0106	113.30	113.30
2.0106	117.62	117.62
2.0106	121.86	121.86
2.0106	126.31	126.31
2.0106	128.19	128.19
2.0106	131.76	131.76
2.0106	137.96	137.96
2.0106	144.52	144.52
2.0106	151.21	151.21
2.0106	158.04	158.04
2.0106	165.19	165.19
2.0106	165.93	165.93
2.0106	168.36	168.36
2.0106	172.60	172.60
2.0106	176.70	176.70
2.0106	181.14	181.14
2.0106	182.89	182.89
2.0106	189.08	189.08
2.0106	197.27	197.27
2.0106	205.61	205.61
2.0106	211.06	211.06
2.0106	214.16	214.16
2.0106	219.89	219.89
2.0106	222.78	222.78
2.0106	223.75	223.75
2.0106	224.98	224.98
2.0106	226.94	226.94
2.0106	229.58	229.58
2.0106	230.82	230.82
2.0106	232.84	232.84
2.0106	236.65	236.65
2.0106	238.01	238.01
2.0106	240.24	240.24
2.0106	240.96	240.96
2.0106	245.69	245.69
2.0106	246.24	246.24
2.0106	250.76	250.76
2.0106	255.40	255.40
2.0106	256.06	256.06
2.0106	261.41	261.41
2.0106	264.20	264.20
2.0420	39.839	39.839
2.0420	65.542	65.542
2.0420	73.601	73.601
2.0420	86.404	86.404
2.0420	96.027	96.027
2.0420	97.742	97.742
2.0420	106.22	106.22
2.0420	108.07	108.07
2.0420	111.00	111.00
2.0420	114.75	114.75
2.0420	118.94	118.94
2.0420	123.02	123.02
2.0420	127.45	127.45
2.0420	127.65	127.65
2.0420	132.92	132.92
2.0420	139.10	139.10
2.0420	145.62	145.62
2.0420	152.27	152.27
2.0420	159.05	159.05
2.0420	165.10	165.10
2.0420	166.14	166.14
2.0420	169.15	169.15
2.0420	173.46	173.46
2.0420	177.83	177.83
2.0420	182.11	182.11
2.0420	182.25	182.25
2.0420	190.10	190.10
2.0420	198.26	198.26
2.0420	206.56	206.56
2.0420	211.86	211.86
2.0420	215.06	215.06
2.0420	218.62	218.62
2.0420	222.05	222.05
2.0420	223.28	223.28
2.0420	223.61	223.61
2.0420	225.25	225.25
2.0420	227.88	227.88
2.0420	231.14	231.14
2.0420	231.60	231.60
2.0420	234.95	234.95
2.0420	238.70	238.70
2.0420	239.26	239.26
2.0420	239.40	239.40
2.0420	244.00	244.00
2.0420	247.13	247.13
2.0420	249.08	249.08
2.0420	254.41	254.41
2.0420	256.34	256.34
2.0420	259.84	259.84
2.0420	265.18	265.18
2.0735	40.190	40.190
2.0735	66.111	66.111
2.0735	73.024	73.024
2.0735	87.282	87.282
2.0735	96.863	96.863
2.0735	97.242	97.242
2.0735	107.83	107.83
2.0735	109.65	109.65
2.0735	112.52	112.52
2.0735	116.19	116.19
2.0735	120.25	120.25
2.0735	124.17	124.17
2.0735	127.11	127.11
2.0735	128.61	128.61
2.0735	134.11	134.11
2.0735	140.26	140.26
2.0735	146.74	146.74
2.0735	153.34	153.34
2.0735	160.07	160.07
2.0735	164.25	164.25
2.0735	167.10	167.10
2.0735	169.93	169.93
2.0735	174.34	174.34
2.0735	178.95	178.95
2.0735	181.34	181.34
2.0735	183.38	183.38
2.0735	191.14	191.14
2.0735	199.26	199.26
2.0735	207.53	207.53
2.0735	212.53	212.53
2.0735	215.97	215.97
2.0735	217.51	217.51
2.0735	220.35	220.35
2.0735	221.59	221.59
2.0735	223.56	223.56
2.0735	224.45	224.45
2.0735	226.19	226.19
2.0735	229.44	229.44
2.0735	232.39	232.39
2.0735	233.26	233.26
2.0735	237.57	237.57
2.0735	238.16	238.16
2.0735	239.79	239.79
2.0735	242.31	242.31
2.0735	247.41	247.41
2.0735	248.03	248.03
2.0735	252.76	252.76
2.0735	257.28	257.28
2.0735	258.25	258.25
2.0735	263.69	263.69
2.1049	40.548	40.548
2.1049	66.671	66.671
2.1049	72.450	72.450
2.1049	88.129	88.129
2.1049	96.745	96.745
2.1049	97.732	97.732
2.1049	109.45	109.45
2.1049	111.23	111.23
2.1049	114.04	114.04
2.1049	117.63	117.63
2.1049	121.54	121.54
2.1049	125.32	125.32
2.1049	126.58	126.58
2.1049	129.80	129.80
2.1049	135.31	135.31
2.1049	141.43	141.43
2.1049	147.86	147.86
2.1049	154.41	154.41
2.1049	161.09	161.09
2.1049	163.39	163.39
2.1049	168.07	168.07
2.1049	170.69	170.69
2.1049	175.22	175.22
2.1049	180.06	180.06
2.1049	180.61	180.61
2.1049	184.55	184.55
2.1049	192.19	192.19
2.1049	200.28	200.28
2.1049	208.51	208.51
2.1049	212.83	212.83
2.1049	216.76	216.76
2.1049	216.89	216.89
2.1049	218.65	218.65
2.1049	219.90	219.90
2.1049	221.87	221.87
2.1049	224.51	224.51
2.1049	225.30	225.30
2.1049	227.76	227.76
2.1049	231.57	231.57
2.1049	233.18	233.18
2.1049	235.88	235.88
2.1049	237.21	237.21
2.1049	240.61	240.61
2.1049	240.62	240.62
2.1049	245.73	245.73
2.1049	248.93	248.93
2.1049	251.11	251.11
2.1049	256.65	256.65
2.1049	258.21	258.21
2.1049	262.17	262.17
2.1363	40.910	40.910
2.1363	67.222	67.222
2.1363	71.879	71.879
2.1363	88.945	88.945
2.1363	96.251	96.251
2.1363	98.634	98.634
2.1363	111.07	111.07
2.1363	112.82	112.82
2.1363	115.57	115.57
2.1363	119.07	119.07
2.1363	122.81	122.81
2.1363	126.05	126.05
2.1363	126.48	126.48
2.1363	131.00	131.00
2.1363	136.52	136.52
2.1363	142.62	142.62
2.1363	149.00	149.00
2.1363	155.49	155.49
2.1363	162.11	162.11
2.1363	162.52	162.52
2.1363	169.03	169.03
2.1363	171.41	171.41
2.1363	176.11	176.11
2.1363	179.92	179.92
2.1363	181.18	181.18
2.1363	185.74	185.74
2.1363	193.26	193.26
2.1363	201.31	201.31
2.1363	209.50	209.50
2.1363	212.48	212.48
2.1363	216.55	216.55
2.1363	217.03	217.03
2.1363	217.83	217.83
2.1363	218.25	218.25
2.1363	220.20	220.20
2.1363	222.83	222.83
2.1363	226.07	226.07
2.1363	226.16	226.16
2.1363	229.88	229.88
2.1363	233.98	233.98
2.1363	234.19	234.19
2.1363	236.23	236.23
2.1363	238.94	238.94
2.1363	241.46	241.46
2.1363	244.06	244.06
2.1363	249.46	249.46
2.1363	249.84	249.84
2.1363	255.04	255.04
2.1363	259.15	259.15
2.1363	260.63	260.63
2.1677	41.278	41.278
2.1677	67.765	67.765
2.1677	71.309	71.309
2.1677	89.733	89.733
2.1677	95.761	95.761
2.1677	99.567	99.567
2.1677	112.69	112.69
2.1677	114.40	114.40
2.1677	117.10	117.10
2.1677	120.50	120.50
2.1677	124.07	124.07
2.1677	125.51	125.51
2.1677	127.66	127.66
2.1677	132.24	132.24
2.1677	137.76	137.76
2.1677	143.82	143.82
2.1677	150.15	150.15
2.1677	156.58	156.58
2.1677	161.65	161.65
2.1677	163.14	163.14
2.1677	170.01	170.01
2.1677	172.03	172.03
2.1677	177.02	177.02
2.1677	179.31	179.31
2.1677	182.28	182.28
2.1677	186.94	186.94
2.1677	194.34	194.34
2.1677	202.35	202.35
2.1677	210.51	210.51
2.1677	211.58	211.58
2.1677	215.22	215.22
2.1677	216.35	216.35
2.1677	217.27	217.27
2.1677	218.61	218.61
2.1677	218.77	218.77
2.1677	221.17	221.17
2.1677	224.40	224.40
2.1677	227.02	227.02
2.1677	228.21	228.21
2.1677	232.52	232.52
2.1677	234.71	234.71
2.1677	235.32	235.32
2.1677	237.27	237.27
2.1677	242.33	242.33
2.1677	242.39	242.39
2.1677	247.82	247.82
2.1677	250.76	250.76
2.1677	253.43	253.43
2.1677	259.09	259.09
2.1677	260.09	260.09
2.1991	41.652	41.652
2.1991	68.299	68.299
2.1991	70.742	70.742
2.1991	90.494	90.494
2.1991	95.275	95.275
2.1991	100.53	100.53
2.1991	114.31	114.31
2.1991	115.99	115.99
2.1991	118.63	118.63
2.1991	121.92	121.92
2.1991	124.98	124.98
2.1991	125.30	125.30
2.1991	128.85	128.85
2.1991	133.49	133.49
2.1991	139.01	139.01
2.1991	145.03	145.03
2.1991	151.31	151.31
2.1991	157.68	157.68
2.1991	160.79	160.79
2.1991	164.17	164.17
2.1991	170.98	170.98
2.1991	172.52	172.52
2.1991	177.94	177.94
2.1991	178.85	178.85
2.1991	183.39	183.39
2.1991	188.16	188.16
2.1991	195.44	195.44
2.1991	203.41	203.41
2.1991	210.41	210.41
2.1991	211.52	211.52
2.1991	213.53	213.53
2.1991	214.76	214.76
2.1991	216.65	216.65
2.1991	218.09	218.09
2.1991	219.59	219.59
2.1991	219.72	219.72
2.1991	222.74	222.74
2.1991	226.54	226.54
2.1991	227.89	227.89
2.1991	230.84	230.84
2.1991	234.18	234.18
2.1991	235.60	235.60
2.1991	235.68	235.68
2.1991	240.73	240.73
2.1991	243.21	243.21
2.1991	246.17	246.17
2.1991	251.68	251.68
2.1991	251.82	251.82
2.1991	257.53	257.53
2.1991	261.03	261.03
2.2305	42.030	42.030
2.2305	68.825	68.825
2.2305	70.178	70.178
2.2305	91.230	91.230
2.2305	94.792	94.792
2.2305	101.52	101.52
2.2305	115.93	115.93
2.2305	117.57	117.57
2.2305	120.15	120.15
2.2305	123.33	123.33
2.2305	124.45	124.45
2.2305	126.51	126.51
2.2305	130.08	130.08
2.2305	134.77	134.77
2.2305	140.27	140.27
2.2305	146.25	146.25
2.2305	152.47	152.47
2.2305	158.77	158.77
2.2305	159.91	159.91
2.2305	165.21	165.21
2.2305	171.97	171.97
2.2305	172.80	172.80
2.2305	178.59	178.59
2.2305	178.88	178.88
2.2305	184.50	184.50
2.2305	189.38	189.38
2.2305	196.55	196.55
2.2305	204.48	204.48
2.2305	209.15	209.15
2.2305	211.85	211.85
2.2305	212.55	212.55
2.2305	213.10	213.10
2.2305	215.06	215.06
2.2305	217.60	217.60
2.2305	219.12	219.12
2.2305	220.68	220.68
2.2305	221.14	221.14
2.2305	224.88	224.88
2.2305	228.76	228.76
2.2305	229.18	229.18
2.2305	233.20	233.20
2.2305	233.94	233.94
2.2305	236.49	236.49
2.2305	239.08	239.08
2.2305	244.09	244.09
2.2305	244.53	244.53
2.2305	250.21	250.21
2.2305	252.61	252.61
2.2305	255.97	255.97
2.2305	261.66	261.66
2.2619	42.414	42.414
2.2619	69.343	69.343
2.2619	69.616	69.616
2.2619	91.943	91.943
2.2619	94.312	94.312
2.2619	102.53	102.53
2.2619	117.55	117.55
2.2619	119.16	119.16
2.2619	121.67	121.67
2.2619	123.91	123.91
2.2619	124.71	124.71
2.2619	127.71	127.71
2.2619	131.33	131.33
2.2619	136.07	136.07
2.2619	141.55	141.55
2.2619	147.48	147.48
2.2619	153.64	153.64
2.2619	159.04	159.04
2.2619	159.88	159.88
2.2619	166.25	166.25
2.2619	172.81	172.81
2.2619	172.96	172.96
2.2619	178.60	178.60
2.2619	179.84	179.84
2.2619	185.61	185.61
2.2619	190.62	190.62
2.2619	197.68	197.68
2.2619	205.56	205.56
2.2619	207.83	207.83
2.2619	210.16	210.16
2.2619	211.43	211.43
2.2619	213.41	213.41
2.2619	213.59	213.59
2.2619	216.03	216.03
2.2619	219.09	219.09
2.2619	220.27	220.27
2.2619	221.65	221.65
2.2619	223.25	223.25
2.2619	227.53	227.53
2.2619	229.65	229.65
2.2619	232.20	232.20
2.2619	232.28	232.28
2.2619	237.33	237.33
2.2619	237.43	237.43
2.2619	242.90	242.90
2.2619	244.99	244.99
2.2619	248.60	248.60
2.2619	253.55	253.55
2.2619	254.41	254.41
2.2619	260.16	260.16
2.2934	42.803	42.803
2.2934	69.056	69.056
2.2934	69.854	69.854
2.2934	92.638	92.638
2.2934	93.836	93.836
2.2934	103.57	103.57
2.2934	119.17	119.17
2.2934	120.75	120.75
2.2934	123.19	123.19
2.2934	123.38	123.38
2.2934	126.05	126.05
2.2934	128.92	128.92
2.2934	132.62	132.62
2.2934	137.39	137.39
2.2934	142.84	142.84
2.2934	148.72	148.72
2.2934	154.82	154.82
2.2934	158.16	158.16
2.2934	160.99	160.99
2.2934	167.30	167.30
2.2934	172.54	172.54
2.2934	173.97	173.97
2.2934	178.89	178.89
2.2934	180.82	180.82
2.2934	186.73	186.73
2.2934	191.86	191.86
2.2934	198.82	198.82
2.2934	206.49	206.49
2.2934	206.65	206.65
2.2934	208.48	208.48
2.2934	209.76	209.76
2.2934	211.75	211.75
2.2934	214.39	214.39
2.2934	214.64	214.64
2.2934	217.61	217.61
2.2934	220.77	220.77
2.2934	221.84	221.84
2.2934	222.63	222.63
2.2934	225.89	225.89
2.2934	230.54	230.54
2.2934	230.64	230.64
2.2934	231.20	231.20
2.2934	235.79	235.79
2.2934	238.19	238.19
2.2934	241.27	241.27
2.2934	245.90	245.90
2.2934	247.00	247.00
2.2934	252.85	252.85
2.2934	254.49	254.49
2.2934	258.66	258.66
2.3248	43.197	43.197
2.3248	68.498	68.498
2.3248	70.358	70.358
2.3248	93.314	93.314
2.3248	93.362	93.362
2.3248	104.62	104.62
2.3248	120.79	120.79
2.3248	122.33	122.33
2.3248	122.85	122.85
2.3248	124.69	124.69
2.3248	127.36	127.36
2.3248	130.15	130.15
2.3248	133.95	133.95
2.3248	138.72	138.72
2.3248	144.14	144.14
2.3248	149.97	149.97
2.3248	156.01	156.01
2.3248	157.29	157.29
2.3248	162.10	162.10
2.3248	168.35	168.35
2.3248	172.05	172.05
2.3248	174.98	174.98
2.3248	179.39	179.39
2.3248	181.81	181.81
2.3248	187.85	187.85
2.3248	193.11	193.11
2.3248	199.98	199.98
2.3248	205.12	205.12
2.3248	206.80	206.80
2.3248	207.75	207.75
2.3248	208.10	208.10
2.3248	210.09	210.09
2.3248	212.74	212.74
2.3248	215.71	215.71
2.3248	215.98	215.98
2.3248	219.74	219.74
2.3248	222.10	222.10
2.3248	223.62	223.62
2.3248	224.30	224.30
2.3248	229.00	229.00
2.3248	230.19	230.19
2.3248	231.44	231.44
2.3248	234.16	234.16
2.3248	239.05	239.05
2.3248	239.65	239.65
2.3248	245.40	245.40
2.3248	246.82	246.82
2.3248	251.29	251.29
2.3248	255.44	255.44
2.3248	257.15	257.15
2.3562	43.595	43.595
2.3562	67.943	67.943
2.3562	70.854	70.854
2.3562	92.892	92.892
2.3562	93.976	93.976
2.3562	105.69	105.69
2.3562	122.31	122.31
2.3562	122.41	122.41
2.3562	123.91	123.91
2.3562	126.17	126.17
2.3562	128.63	128.63
2.3562	131.41	131.41
2.3562	135.30	135.30
2.3562	140.07	140.07
2.3562	145.46	145.46
2.3562	151.23	151.23
2.3562	156.41	156.41
2.3562	157.20	157.20
2.3562	163.22	163.22
2.3562	169.41	169.41
2.3562	171.42	171.42
2.3562	176.01	176.01
2.3562	180.04	180.04
2.3562	182.83	182.83
2.3562	188.97	188.97
2.3562	194.36	194.36
2.3562	201.15	201.15
2.3562	203.75	203.75
2.3562	205.13	205.13
2.3562	206.44	206.44
2.3562	208.44	208.44
2.3562	208.87	208.87
2.3562	211.09	211.09
2.3562	214.34	214.34
2.3562	216.78	216.78
2.3562	218.14	218.14
2.3562	222.23	222.23
2.3562	223.44	223.44
2.3562	224.62	224.62
2.3562	227.39	227.39
2.3562	229.19	229.19
2.3562	232.35	232.35
2.3562	232.53	232.53
2.3562	238.04	238.04
2.3562	239.93	239.93
2.3562	243.81	243.81
2.3562	247.75	247.75
2.3562	249.73	249.73
2.3562	255.64	255.64
2.3562	256.40	256.40
2.3876	43.999	43.999
2.3876	67.390	67.390
2.3876	71.344	71.344
2.3876	92.425	92.425
2.3876	94.625	94.625
2.3876	106.77	106.77
2.3876	121.78	121.78
2.3876	124.03	124.03
2.3876	125.49	125.49
2.3876	127.62	127.62
2.3876	129.88	129.88
2.3876	132.72	132.72
2.3876	136.67	136.67
2.3876	141.44	141.44
2.3876	146.78	146.78
2.3876	152.50	152.50
2.3876	155.52	155.52
2.3876	158.40	158.40
2.3876	164.34	164.34
2.3876	170.48	170.48
2.3876	170.70	170.70
2.3876	177.05	177.05
2.3876	180.78	180.78
2.3876	183.86	183.86
2.3876	190.10	190.10
2.3876	195.61	195.61
2.3876	202.33	202.33
2.3876	202.35	202.35
2.3876	203.47	203.47
2.3876	204.79	204.79
2.3876	206.80	206.80
2.3876	209.45	209.45
2.3876	210.00	210.00
2.3876	212.70	212.70
2.3876	216.51	216.51
2.3876	217.87	217.87
2.3876	220.80	220.80
2.3876	224.11	224.11
2.3876	225.63	225.63
2.3876	225.87	225.87
2.3876	228.19	228.19
2.3876	230.92	230.92
2.3876	233.27	233.27
2.3876	236.43	236.43
2.3876	240.81	240.81
2.3876	242.22	242.22
2.3876	248.18	248.18
2.3876	248.69	248.69
2.3876	254.14	254.14
2.3876	257.36	257.36
2.4190	44.407	44.407
2.4190	66.840	66.840
2.4190	71.828	71.828
2.4190	91.961	91.961
2.4190	95.262	95.262
2.4190	107.86	107.86
2.4190	121.25	121.25
2.4190	125.65	125.65
2.4190	127.05	127.05
2.4190	129.01	129.01
2.4190	131.12	131.12
2.4190	134.07	134.07
2.4190	138.07	138.07
2.4190	142.81	142.81
2.4190	148.11	148.11
2.4190	153.78	153.78
2.4190	154.64	154.64
2.4190	159.60	159.60
2.4190	165.47	165.47
2.4190	169.92	169.92
2.4190	171.56	171.56
2.4190	178.11	178.11
2.4190	181.57	181.57
2.4190	184.91	184.91
2.4190	191.24	191.24
2.4190	196.86	196.86
2.4190	200.92	200.92
2.4190	201.82	201.82
2.4190	203.16	203.16
2.4190	203.52	203.52
2.4190	205.16	205.16
2.4190	207.81	207.81
2.4190	211.06	211.06
2.4190	211.14	211.14
2.4190	214.88	214.88
2.4190	218.97	218.97
2.4190	219.20	219.20
2.4190	223.84	223.84
2.4190	225.47	225.47
2.4190	226.56	226.56
2.4190	227.28	227.28
2.4190	229.33	229.33
2.4190	234.19	234.19
2.4190	234.83	234.83
2.4190	240.64	240.64
2.4190	241.71	241.71
2.4190	246.63	246.63
2.4190	249.63	249.63
2.4190	252.64	252.64
2.4190	258.33	258.33
2.4504	44.819	44.819
2.4504	66.292	66.292
2.4504	72.306	72.306
2.4504	91.501	91.501
2.4504	95.890	95.890
2.4504	108.96	108.96
2.4504	120.71	120.71
2.4504	127.27	127.27
2.4504	128.60	128.60
2.4504	130.35	130.35
2.4504	132.40	132.40
2.4504	135.47	135.47
2.4504	139.48	139.48
2.4504	144.20	144.20
2.4504	149.45	149.45
2.4504	153.75	153.75
2.4504	155.06	155.06
2.4504	160.80	160.80
2.4504	166.59	166.59
2.4504	169.11	169.11
2.4504	172.65	172.65
2.4504	179.17	179.17
2.4504	182.41	182.41
2.4504	185.98	185.98
2.4504	192.39	192.39
2.4504	198.11	198.11
2.4504	199.46	199.46
2.4504	200.20	200.20
2.4504	201.53	201.53
2.4504	203.53	203.53
2.4504	204.72	204.72
2.4504	206.18	206.18
2.4504	209.43	209.43
2.4504	212.29	212.29
2.4504	213.26	213.26
2.4504	217.59	217.59
2.4504	220.07	220.07
2.4504	222.35	222.35
2.4504	226.10	226.10
2.4504	226.21	226.21
2.4504	227.78	227.78
2.4504	227.87	227.87
2.4504	233.25	233.25
2.4504	235.12	235.12
2.4504	239.07	239.07
2.4504	242.61	242.61
2.4504	245.09	245.09
2.4504	250.59	250.59
2.4504	251.14	251.14
2.4504	257.07	257.07
2.4819	45.236	45.236
2.4819	65.746	65.746
2.4819	72.778	72.778
2.4819	91.043	91.043
2.4819	96.510	96.510
2.4819	110.07	110.07
2.4819	120.18	120.18
2.4819	128.88	128.88
2.4819	130.10	130.10
2.4819	131.64	131.64
2.4819	133.74	133.74
2.4819	136.89	136.89
2.4819	140.91	140.91
2.4819	145.60	145.60
2.4819	150.80	150.80
2.4819	152.86	152.86
2.4819	156.34	156.34
2.4819	162.01	162.01
2.4819	167.73	167.73
2.4819	168.26	168.26
2.4819	173.74	173.74
2.4819	180.26	180.26
2.4819	183.27	183.27
2.4819	187.07	187.07
2.4819	193.54	193.54
2.4819	197.95	197.95
2.4819	198.61	198.61
2.4819	199.37	199.37
2.4819	199.93	199.93
2.4819	201.91	201.91
2.4819	204.55	204.55
2.4819	205.93	205.93
2.4819	207.81	207.81
2.4819	211.63	211.63
2.4819	213.45	213.45
2.4819	215.97	215.97
2.4819	220.77	220.77
2.4819	221.18	221.18
2.4819	225.13	225.13
2.4819	225.83	225.83
2.4819	227.63	227.63
2.4819	228.80	228.80
2.4819	231.70	231.70
2.4819	236.06	236.06
2.4819	237.51	237.51
2.4819	243.53	243.53
2.4819	243.55	243.55
2.4819	249.64	249.64
2.4819	251.55	251.55
2.4819	255.62	255.62
2.5133	45.657	45.657
2.5133	65.202	65.202
2.5133	73.245	73.245
2.5133	90.587	90.587
2.5133	97.123	97.123
2.5133	111.18	111.18
2.5133	119.64	119.64
2.5133	130.48	130.48
2.5133	131.53	131.53
2.5133	132.91	132.91
2.5133	135.14	135.14
2.5133	138.35	138.35
2.5133	142.35	142.35
2.5133	147.01	147.01
2.5133	151.97	151.97
2.5133	152.16	152.16
2.5133	157.63	157.63
2.5133	163.22	163.22
2.5133	167.40	167.40
2.5133	168.87	168.87
2.5133	174.85	174.85
2.5133	181.36	181.36
2.5133	184.14	184.14
2.5133	188.17	188.17
2.5133	194.70	194.70
2.5133	196.38	196.38
2.5133	197.04	197.04
2.5133	198.34	198.34
2.5133	200.31	200.31
2.5133	200.62	200.62
2.5133	202.94	202.94
2.5133	206.19	206.19
2.5133	207.15	207.15
2.5133	210.01	210.01
2.5133	214.36	214.36
2.5133	214.61	214.61
2.5133	219.17	219.17
2.5133	222.25	222.25
2.5133	224.19	224.19
2.5133	224.36	224.36
2.5133	228.41	228.41
2.5133	229.86	229.86
2.5133	230.25	230.25
2.5133	235.96	235.96
2.5133	237.01	237.01
2.5133	242.02	242.02
2.5133	244.45	244.45
2.5133	248.15	248.15
2.5133	252.51	252.51
2.5133	254.17	254.17
2.5447	46.082	46.082
2.5447	64.661	64.661
2.5447	73.707	73.707
2.5447	90.135	90.135
2.5447	97.730	97.730
2.5447	112.30	112.30
2.5447	119.11	119.11
2.5447	132.05	132.05
2.5447	132.86	132.86
2.5447	134.24	134.24
2.5447	136.59	136.59
2.5447	139.82	139.82
2.5447	143.81	143.81
2.5447	148.42	148.42
2.5447	151.07	151.07
2.5447	153.52	153.52
2.5447	158.93	158.93
2.5447	164.43	164.43
2.5447	166.52	166.52
2.5447	170.01	170.01
2.5447	175.98	175.98
2.5447	182.48	182.48
2.5447	185.03	185.03
2.5447	189.29	189.29
2.5447	194.77	194.77
2.5447	195.48	195.48
2.5447	195.87	195.87
2.5447	196.78	196.78
2.5447	198.72	198.72
2.5447	201.33	201.33
2.5447	201.87	201.87
2.5447	204.58	204.58
2.5447	208.38	208.38
2.5447	208.40	208.40
2.5447	212.76	212.76
2.5447	215.79	215.79
2.5447	217.58	217.58
2.5447	222.75	222.75
2.5447	222.80	222.80
2.5447	223.84	223.84
2.5447	228.20	228.20
2.5447	229.88	229.88
2.5447	230.94	230.94
2.5447	234.44	234.44
2.5447	237.97	237.97
2.5447	240.51	240.51
2.5447	245.39	245.39
2.5447	246.66	246.66
2.5447	252.72	252.72
2.5447	253.48	253.48
2.5761	46.512	46.512
2.5761	64.123	64.123
2.5761	74.164	74.164
2.5761	89.685	89.685
2.5761	98.332	98.332
2.5761	113.42	113.42
2.5761	118.57	118.57
2.5761	133.49	133.49
2.5761	134.16	134.16
2.5761	135.68	135.68
2.5761	138.08	138.08
2.5761	141.31	141.31
2.5761	145.27	145.27
2.5761	149.85	149.85
2.5761	150.17	150.17
2.5761	154.89	154.89
2.5761	160.23	160.23
2.5761	165.63	165.63
2.5761	165.65	165.65
2.5761	171.16	171.16
2.5761	177.11	177.11
2.5761	183.61	183.61
2.5761	185.91	185.91
2.5761	190.42	190.42
2.5761	193.14	193.14
2.5761	193.93	193.93
2.5761	195.23	195.23
2.5761	197.05	197.05
2.5761	197.15	197.15
2.5761	199.74	199.74
2.5761	202.97	202.97
2.5761	203.13	203.13
2.5761	206.80	206.80
2.5761	209.61	209.61
2.5761	211.16	211.16
2.5761	215.99	215.99
2.5761	216.96	216.96
2.5761	221.23	221.23
2.5761	221.97	221.97
2.5761	224.79	224.79
2.5761	226.79	226.79
2.5761	230.67	230.67
2.5761	232.03	232.03
2.5761	233.00	233.00
2.5761	238.94	238.94
2.5761	239.00	239.00
2.5761	245.18	245.18
2.5761	246.33	246.33
2.5761	251.27	251.27
2.5761	254.46	254.46
2.6075	46.945	46.945
2.6075	63.586	63.586
2.6075	74.617	74.617
2.6075	89.238	89.238
2.6075	98.929	98.929
2.6075	114.54	114.54
2.6075	118.03	118.03
2.6075	134.67	134.67
2.6075	135.62	135.62
2.6075	137.18	137.18
2.6075	139.60	139.60
2.6075	142.82	142.82
2.6075	146.75	146.75
2.6075	149.27	149.27
2.6075	151.28	151.28
2.6075	156.27	156.27
2.6075	161.53	161.53
2.6075	164.74	164.74
2.6075	166.86	166.86
2.6075	172.32	172.32
2.6075	178.26	178.26
2.6075	184.76	184.76
2.6075	186.79	186.79
2.6075	191.50	191.50
2.6075	191.57	191.57
2.6075	192.36	192.36
2.6075	193.70	193.70
2.6075	195.60	195.60
2.6075	198.16	198.16
2.6075	198.23	198.23
2.6075	201.38	201.38
2.6075	204.38	204.38
2.6075	205.20	205.20
2.6075	209.56	209.56
2.6075	210.85	210.85
2.6075	214.40	214.40
2.6075	218.12	218.12
2.6075	219.66	219.66
2.6075	221.03	221.03
2.6075	225.27	225.27
2.6075	225.93	225.93
2.6075	230.86	230.86
2.6075	232.28	232.28
2.6075	233.14	233.14
2.6075	237.51	237.51
2.6075	239.92	239.92
2.6075	243.71	243.71
2.6075	247.28	247.28
2.6075	249.83	249.83
2.6075	255.44	255.44
2.6389	47.382	47.382
2.6389	63.052	63.052
2.6389	75.065	75.065
2.6389	88.793	88.793
2.6389	99.522	99.522
2.6389	115.66	115.66
2.6389	117.49	117.49
2.6389	135.67	135.67
2.6389	137.18	137.18
2.6389	138.74	138.74
2.6389	141.14	141.14
2.6389	144.33	144.33
2.6389	148.23	148.23
2.6389	148.36	148.36
2.6389	152.71	152.71
2.6389	157.65	157.65
2.6389	162.83	162.83
2.6389	163.84	163.84
2.6389	168.08	168.08
2.6389	173.50	173.50
2.6389	179.43	179.43
2.6389	185.93	185.93
2.6389	187.63	187.63
2.6389	189.85	189.85
2.6389	190.78	190.78
2.6389	192.19	192.19
2.6389	192.74	192.74
2.6389	194.08	194.08
2.6389	196.60	196.60
2.6389	199.43	199.43
2.6389	199.80	199.80
2.6389	203.61	203.61
2.6389	205.64	205.64
2.6389	207.98	207.98
2.6389	212.09	212.09
2.6389	212.82	212.82
2.6389	218.10	218.10
2.6389	219.09	219.09
2.6389	220.27	220.27
2.6389	223.73	223.73
2.6389	227.11	227.11
2.6389	229.61	229.61
2.6389	233.00	233.00
2.6389	234.26	234.26
2.6389	236.08	236.08
2.6389	240.90	240.90
2.6389	242.25	242.25
2.6389	248.24	248.24
2.6389	248.40	248.40
2.6389	254.56	254.56
2.6704	47.824	47.824
2.6704	62.521	62.521
2.6704	75.510	75.510
2.6704	88.351	88.351
2.6704	100.11	100.11
2.6704	116.78	116.78
2.6704	116.95	116.95
2.6704	136.59	136.59
2.6704	138.79	138.79
2.6704	140.31	140.31
2.6704	142.69	142.69
2.6704	145.86	145.86
2.6704	147.45	147.45
2.6704	149.72	149.72
2.6704	154.15	154.15
2.6704	159.03	159.03
2.6704	162.93	162.93
2.6704	164.14	164.14
2.6704	169.30	169.30
2.6704	174.68	174.68
2.6704	180.62	180.62
2.6704	187.11	187.11
2.6704	188.04	188.04
2.6704	188.43	188.43
2.6704	189.32	189.32
2.6704	190.73	190.73
2.6704	192.59	192.59
2.6704	193.91	193.91
2.6704	195.06	195.06
2.6704	198.23	198.23
2.6704	200.63	200.63
2.6704	202.03	202.03
2.6704	206.40	206.40
2.6704	206.90	206.90
2.6704	211.25	211.25
2.6704	213.33	213.33
2.6704	216.54	216.54
2.6704	218.77	218.77
2.6704	220.81	220.81
2.6704	222.20	222.20
2.6704	228.15	228.15
2.6704	228.30	228.30
2.6704	233.62	233.62
2.6704	234.97	234.97
2.6704	235.40	235.40
2.6704	240.80	240.80
2.6704	241.89	241.89
2.6704	246.97	246.97
2.6704	249.20	249.20
2.6704	253.15	253.15
2.7018	48.268	48.268
2.7018	61.992	61.992
2.7018	75.952	75.952
2.7018	87.911	87.911
2.7018	100.70	100.70
2.7018	116.41	116.41
2.7018	117.90	117.90
2.7018	137.48	137.48
2.7018	140.41	140.41
2.7018	141.90	141.90
2.7018	144.26	144.26
2.7018	146.53	146.53
2.7018	147.39	147.39
2.7018	151.21	151.21
2.7018	155.60	155.60
2.7018	160.42	160.42
2.7018	162.02	162.02
2.7018	165.44	165.44
2.7018	170.52	170.52
2.7018	175.87	175.87
2.7018	181.81	181.81
2.7018	186.50	186.50
2.7018	187.41	187.41
2.7018	188.31	188.31
2.7018	188.66	188.66
2.7018	189.81	189.81
2.7018	191.25	191.25
2.7018	193.57	193.57
2.7018	195.11	195.11
2.7018	196.68	196.68
2.7018	200.46	200.46
2.7018	201.84	201.84
2.7018	204.83	204.83
2.7018	208.16	208.16
2.7018	209.69	209.69
2.7018	214.56	214.56
2.7018	214.99	214.99
2.7018	217.86	217.86
2.7018	220.67	220.67
2.7018	221.95	221.95
2.7018	226.65	226.65
2.7018	229.51	229.51
2.7018	232.76	232.76
2.7018	235.37	235.37
2.7018	236.56	236.56
2.7018	239.39	239.39
2.7018	242.89	242.89
2.7018	245.55	245.55
2.7018	250.17	250.17
2.7018	251.75	251.75
2.7332	48.717	48.717
2.7332	61.465	61.465
2.7332	76.390	76.390
2.7332	87.473	87.473
2.7332	101.28	101.28
2.7332	115.87	115.87
2.7332	119.02	119.02
2.7332	138.34	138.34
2.7332	142.03	142.03
2.7332	143.50	143.50
2.7332	145.61	145.61
2.7332	145.83	145.83
2.7332	148.93	148.93
2.7332	152.71	152.71
2.7332	157.05	157.05
2.7332	161.11	161.11
2.7332	161.80	161.80
2.7332	166.75	166.75
2.7332	171.75	171.75
2.7332	177.08	177.08
2.7332	183.03	183.03
2.7332	184.85	184.85
2.7332	185.83	185.83
2.7332	187.33	187.33
2.7332	189.18	189.18
2.7332	189.52	189.52
2.7332	190.82	190.82
2.7332	192.22	192.22
2.7332	195.15	195.15
2.7332	196.31	196.31
2.7332	198.91	198.91
2.7332	203.06	203.06
2.7332	203.26	203.26
2.7332	208.14	208.14
2.7332	209.42	209.42
2.7332	213.45	213.45
2.7332	215.70	215.70
2.7332	217.00	217.00
2.7332	219.15	219.15
2.7332	223.16	223.16
2.7332	225.16	225.16
2.7332	230.73	230.73
2.7332	231.38	231.38
2.7332	236.21	236.21
2.7332	237.73	237.73
2.7332	238.09	238.09
2.7332	243.90	243.90
2.7332	244.14	244.14
2.7332	250.36	250.36
2.7332	251.13	251.13
2.7646	49.169	49.169
2.7646	60.941	60.941
2.7646	76.826	76.826
2.7646	87.037	87.037
2.7646	101.87	101.87
2.7646	115.33	115.33
2.7646	120.13	120.13
2.7646	139.19	139.19
2.7646	143.66	143.66
2.7646	144.68	144.68
2.7646	145.10	145.10
2.7646	147.40	147.40
2.7646	150.47	150.47
2.7646	154.21	154.21
2.7646	158.51	158.51
2.7646	160.20	160.20
2.7646	163.19	163.19
2.7646	168.05	168.05
2.7646	172.99	172.99
2.7646	178.31	178.31
2.7646	183.19	183.19
2.7646	184.21	184.21
2.7646	184.26	184.26
2.7646	185.80	185.80
2.7646	187.81	187.81
2.7646	190.21	190.21
2.7646	190.74	190.74
2.7646	191.96	191.96
2.7646	193.71	193.71
2.7646	197.36	197.36
2.7646	197.53	197.53
2.7646	201.71	201.71
2.7646	204.29	204.29
2.7646	206.59	206.59
2.7646	210.68	210.68
2.7646	211.92	211.92
2.7646	215.65	215.65
2.7646	217.31	217.31
2.7646	217.63	217.63
2.7646	223.67	223.67
2.7646	224.39	224.39
2.7646	229.93	229.93
2.7646	231.96	231.96
2.7646	236.10	236.10
2.7646	237.80	237.80
2.7646	238.91	238.91
2.7646	242.74	242.74
2.7646	244.91	244.91
2.7646	248.96	248.96
2.7646	252.10	252.10
2.7960	49.625	49.625
2.7960	60.419	60.419
2.7960	77.259	77.259
2.7960	86.603	86.603
2.7960	102.45	102.45
2.7960	114.78	114.78
2.7960	121.24	121.24
2.7960	140.03	140.03
2.7960	143.75	143.75
2.7960	145.29	145.29
2.7960	146.71	146.71
2.7960	148.98	148.98
2.7960	152.02	152.02
2.7960	155.72	155.72
2.7960	159.28	159.28
2.7960	159.97	159.97
2.7960	164.58	164.58
2.7960	169.35	169.35
2.7960	174.23	174.23
2.7960	179.54	179.54
2.7960	181.53	181.53
2.7960	182.58	182.58
2.7960	184.23	184.23
2.7960	185.51	185.51
2.7960	186.33	186.33
2.7960	188.84	188.84
2.7960	191.79	191.79
2.7960	191.98	191.98
2.7960	193.10	193.10
2.7960	195.85	195.85
2.7960	198.76	198.76
2.7960	200.17	200.17
2.7960	205.05	205.05
2.7960	205.53	205.53
2.7960	210.39	210.39
2.7960	211.94	211.94
2.7960	214.74	214.74
2.7960	216.13	216.13
2.7960	218.50	218.50
2.7960	222.19	222.19
2.7960	225.63	225.63
2.7960	228.49	228.49
2.7960	233.20	233.20
2.7960	234.85	234.85
2.7960	238.66	238.66
2.7960	240.12	240.12
2.7960	241.38	241.38
2.7960	245.92	245.92
2.7960	247.58	247.58
2.7960	253.05	253.05
2.8274	50.084	50.084
2.8274	59.900	59.900
2.8274	77.689	77.689
2.8274	86.172	86.172
2.8274	103.02	103.02
2.8274	114.24	114.24
2.8274	122.34	122.34
2.8274	140.87	140.87
2.8274	142.81	142.81
2.8274	146.93	146.93
2.8274	148.33	148.33
2.8274	150.57	150.57
2.8274	153.57	153.57
2.8274	157.24	157.24
2.8274	158.37	158.37
2.8274	161.43	161.43
2.8274	165.97	165.97
2.8274	170.66	170.66
2.8274	175.48	175.48
2.8274	179.87	179.87
2.8274	180.80	180.80
2.8274	180.95	180.95
2.8274	182.65	182.65
2.8274	184.83	184.83
2.8274	186.77	186.77
2.8274	187.38	187.38
2.8274	190.44	190.44
2.8274	193.24	193.24
2.8274	193.61	193.61
2.8274	194.54	194.54
2.8274	198.65	198.65
2.8274	200.00	200.00
2.8274	203.52	203.52
2.8274	206.77	206.77
2.8274	208.87	208.87
2.8274	213.13	213.13
2.8274	213.83	213.83
2.8274	214.63	214.63
2.8274	219.75	219.75
2.8274	220.71	220.71
2.8274	226.88	226.88
2.8274	227.04	227.04
2.8274	233.46	233.46
2.8274	234.45	234.45
2.8274	239.36	239.36
2.8274	240.33	240.33
2.8274	241.33	241.33
2.8274	246.20	246.20
2.8274	246.93	246.93
2.8274	252.96	252.96
2.8588	50.546	50.546
2.8588	59.383	59.383
2.8588	78.118	78.118
2.8588	85.741	85.741
2.8588	103.60	103.60
2.8588	113.69	113.69
2.8588	123.44	123.44
2.8588	141.71	141.71
2.8588	141.86	141.86
2.8588	148.56	148.56
2.8588	149.94	149.94
2.8588	152.16	152.16
2.8588	155.13	155.13
2.8588	157.46	157.46
2.8588	158.75	158.75
2.8588	162.89	162.89
2.8588	167.36	167.36
2.8588	171.96	171.96
2.8588	176.74	176.74
2.8588	178.22	178.22
2.8588	179.31	179.31
2.8588	181.06	181.06
2.8588	182.07	182.07
2.8588	183.30	183.30
2.8588	185.92	185.92
2.8588	188.04	188.04
2.8588	188.99	188.99
2.8588	192.66	192.66
2.8588	194.51	194.51
2.8588	194.85	194.85
2.8588	197.15	197.15
2.8588	201.26	201.26
2.8588	202.00	202.00
2.8588	207.37	207.37
2.8588	208.03	208.03
2.8588	212.69	212.69
2.8588	213.14	213.14
2.8588	214.55	214.55
2.8588	219.25	219.25
2.8588	221.02	221.02
2.8588	225.60	225.60
2.8588	228.13	228.13
2.8588	232.07	232.07
2.8588	235.71	235.71
2.8588	238.41	238.41
2.8588	240.96	240.96
2.8588	242.57	242.57
2.8588	244.83	244.83
2.8588	247.93	247.93
2.8588	251.60	251.60
2.8903	51.012	51.012
2.8903	58.869	58.869
2.8903	78.545	78.545
2.8903	85.313	85.313
2.8903	104.17	104.17
2.8903	113.14	113.14
2.8903	124.53	124.53
2.8903	140.90	140.90
2.8903	142.55	142.55
2.8903	150.20	150.20
2.8903	151.56	151.56
2.8903	153.75	153.75
2.8903	156.55	156.55
2.8903	156.69	156.69
2.8903	160.27	160.27
2.8903	164.36	164.36
2.8903	168.75	168.75
2.8903	173.26	173.26
2.8903	176.56	176.56
2.8903	177.68	177.68
2.8903	178.01	178.01
2.8903	179.46	179.46
2.8903	181.77	181.77
2.8903	183.36	183.36
2.8903	184.45	184.45
2.8903	187.53	187.53
2.8903	189.34	189.34
2.8903	191.20	191.20
2.8903	195.31	195.31
2.8903	195.79	195.79
2.8903	196.06	196.06
2.8903	200.50	200.50
2.8903	202.52	202.52
2.8903	205.87	205.87
2.8903	209.29	209.29
2.8903	211.66	211.66
2.8903	211.70	211.70
2.8903	215.81	215.81
2.8903	217.79	217.79
2.8903	222.30	222.30
2.8903	224.17	224.17
2.8903	229.40	229.40
2.8903	230.67	230.67
2.8903	236.97	236.97
2.8903	237.06	237.06
2.8903	241.99	241.99
2.8903	243.47	243.47
2.8903	243.81	243.81
2.8903	248.92	248.92
2.8903	250.26	250.26
2.9217	51.481	51.481
2.9217	58.358	58.358
2.9217	78.970	78.970
2.9217	84.885	84.885
2.9217	104.75	104.75
2.9217	112.59	112.59
2.9217	125.61	125.61
2.9217	139.94	139.94
2.9217	143.39	143.39
2.9217	151.84	151.84
2.9217	153.18	153.18
2.9217	155.35	155.35
2.9217	155.64	155.64
2.9217	158.25	158.25
2.9217	161.79	161.79
2.9217	165.82	165.82
2.9217	170.14	170.14
2.9217	174.57	174.57
2.9217	174.90	174.90
2.9217	176.04	176.04
2.9217	177.85	177.85
2.9217	179.30	179.30
2.9217	180.22	180.22
2.9217	182.97	182.97
2.9217	184.66	184.66
2.9217	186.07	186.07
2.9217	189.73	189.73
2.9217	190.64	190.64
2.9217	194.03	194.03
2.9217	196.76	196.76
2.9217	197.08	197.08
2.9217	199.02	199.02
2.9217	203.80	203.80
2.9217	204.38	204.38
2.9217	210.18	210.18
2.9217	210.56	210.56
2.9217	210.70	210.70
2.9217	216.34	216.34
2.9217	217.10	217.10
2.9217	222.75	222.75
2.9217	223.58	223.58
2.9217	229.27	229.27
2.9217	230.66	230.66
2.9217	235.70	235.70
2.9217	238.24	238.24
2.9217	242.07	242.07
2.9217	243.08	243.08
2.9217	245.07	245.07
2.9217	248.91	248.91
2.9217	249.86	249.86
2.9531	51.953	51.953
2.9531	57.849	57.849
2.9531	79.394	79.394
2.9531	84.460	84.460
2.9531	105.32	105.32
2.9531	112.04	112.04
2.9531	126.69	126.69
2.9531	138.97	138.97
2.9531	144.24	144.24
2.9531	153.48	153.48
2.9531	154.74	154.74
2.9531	154.80	154.80
2.9531	156.95	156.95
2.9531	159.82	159.82
2.9531	163.32	163.32
2.9531	167.29	167.29
2.9531	171.52	171.52
2.9531	173.25	173.25
2.9531	174.40	174.40
2.9531	175.88	175.88
2.9531	176.24	176.24
2.9531	178.67	178.67
2.9531	180.61	180.61
2.9531	181.49	181.49
2.9531	184.63	184.63
2.9531	185.98	185.98
2.9531	188.27	188.27
2.9531	191.96	191.96
2.9531	192.56	192.56
2.9531	197.28	197.28
2.9531	197.93	197.93
2.9531	198.38	198.38
2.9531	202.90	202.90
2.9531	205.08	205.08
2.9531	208.72	208.72
2.9531	209.69	209.69
2.9531	211.84	211.84
2.9531	214.90	214.90
2.9531	218.38	218.38
2.9531	221.33	221.33
2.9531	224.87	224.87
2.9531	227.88	227.88
2.9531	231.93	231.93
2.9531	234.33	234.33
2.9531	239.52	239.52
2.9531	240.73	240.73
2.9531	244.13	244.13
2.9531	246.34	246.34
2.9531	247.58	247.58
2.9531	250.74	250.74
2.9845	52.429	52.429
2.9845	57.342	57.342
2.9845	79.817	79.817
2.9845	84.035	84.035
2.9845	105.89	105.89
2.9845	111.49	111.49
2.9845	127.76	127.76
2.9845	137.99	137.99
2.9845	145.09	145.09
2.9845	153.84	153.84
2.9845	155.12	155.12
2.9845	156.43	156.43
2.9845	158.55	158.55
2.9845	161.39	161.39
2.9845	164.84	164.84
2.9845	168.75	168.75
2.9845	171.59	171.59
2.9845	172.76	172.76
2.9845	172.90	172.90
2.9845	174.64	174.64
2.9845	177.11	177.11
2.9845	177.20	177.20
2.9845	180.00	180.00
2.9845	181.93	181.93
2.9845	183.19	183.19
2.9845	186.82	186.82
2.9845	187.32	187.32
2.9845	191.09	191.09
2.9845	193.29	193.29
2.9845	195.97	195.97
2.9845	198.72	198.72
2.9845	199.70	199.70
2.9845	201.44	201.44
2.9845	206.38	206.38
2.9845	207.27	207.27
2.9845	208.68	208.68
2.9845	213.13	213.13
2.9845	213.47	213.47
2.9845	219.68	219.68
2.9845	219.93	219.93
2.9845	226.17	226.17
2.9845	226.50	226.50
2.9845	232.97	232.97
2.9845	233.21	233.21
2.9845	239.38	239.38
2.9845	240.80	240.80
2.9845	245.16	245.16
2.9845	246.27	246.27
2.9845	247.60	247.60
2.9845	251.49	251.49
3.0159	52.907	52.907
3.0159	56.838	56.838
3.0159	80.239	80.239
3.0159	83.611	83.611
3.0159	106.45	106.45
3.0159	110.94	110.94
3.0159	128.82	128.82
3.0159	137.01	137.01
3.0159	145.94	145.94
3.0159	152.94	152.94
3.0159	156.76	156.76
3.0159	158.06	158.06
3.0159	160.15	160.15
3.0159	162.96	162.96
3.0159	166.37	166.37
3.0159	169.94	169.94
3.0159	170.21	170.21
3.0159	171.12	171.12
3.0159	173.02	173.02
3.0159	174.28	174.28
3.0159	175.54	175.54
3.0159	178.51	178.51
3.0159	178.52	178.52
3.0159	181.76	181.76
3.0159	183.26	183.26
3.0159	185.39	185.39
3.0159	188.67	188.67
3.0159	189.64	189.64
3.0159	194.52	194.52
3.0159	194.64	194.64
3.0159	199.54	199.54
3.0159	200.11	200.11
3.0159	201.03	201.03
3.0159	205.83	205.83
3.0159	207.58	207.58
3.0159	207.79	207.79
3.0159	212.05	212.05
3.0159	214.43	214.43
3.0159	218.53	218.53
3.0159	220.98	220.98
3.0159	225.12	225.12
3.0159	227.47	227.47
3.0159	231.62	231.62
3.0159	234.49	234.49
3.0159	238.04	238.04
3.0159	242.08	242.08
3.0159	244.89	244.89
3.0159	246.26	246.26
3.0159	248.82	248.82
3.0159	252.04	252.04
3.0473	53.388	53.388
3.0473	56.337	56.337
3.0473	80.661	80.661
3.0473	83.188	83.188
3.0473	107.02	107.02
3.0473	110.38	110.38
3.0473	129.87	129.87
3.0473	136.01	136.01
3.0473	146.80	146.80
3.0473	152.05	152.05
3.0473	158.41	158.41
3.0473	159.68	159.68
3.0473	161.76	161.76
3.0473	164.53	164.53
3.0473	167.89	167.89
3.0473	168.29	168.29
3.0473	169.48	169.48
3.0473	171.41	171.41
3.0473	171.67	171.67
3.0473	173.97	173.97
3.0473	175.65	175.65
3.0473	177.00	177.00
3.0473	179.86	179.86
3.0473	180.33	180.33
3.0473	183.97	183.97
3.0473	184.62	184.62
3.0473	188.19	188.19
3.0473	190.04	190.04
3.0473	193.06	193.06
3.0473	196.00	196.00
3.0473	198.47	198.47
3.0473	200.70	200.70
3.0473	202.36	202.36
3.0473	204.40	204.40
3.0473	206.67	206.67
3.0473	209.02	209.02
3.0473	210.63	210.63
3.0473	215.74	215.74
3.0473	217.14	217.14
3.0473	222.29	222.29
3.0473	223.76	223.76
3.0473	228.77	228.77
3.0473	230.26	230.26
3.0473	235.78	235.78
3.0473	236.70	236.70
3.0473	243.37	243.37
3.0473	243.58	243.58
3.0473	247.25	247.25
3.0473	249.92	249.92
3.0473	251.17	251.17
3.0788	53.873	53.873
3.0788	55.839	55.839
3.0788	81.082	81.082
3.0788	82.766	82.766
3.0788	107.58	107.58
3.0788	109.83	109.83
3.0788	130.92	130.92
3.0788	135.01	135.01
3.0788	147.66	147.66
3.0788	151.16	151.16
3.0788	160.05	160.05
3.0788	161.31	161.31
3.0788	163.36	163.36
3.0788	166.10	166.10
3.0788	166.64	166.64
3.0788	167.85	167.85
3.0788	169.42	169.42
3.0788	169.80	169.80
3.0788	172.40	172.40
3.0788	173.12	173.12
3.0788	175.50	175.50
3.0788	177.02	177.02
3.0788	178.89	178.89
3.0788	181.21	181.21
3.0788	182.56	182.56
3.0788	185.99	185.99
3.0788	186.76	186.76
3.0788	191.41	191.41
3.0788	191.62	191.62
3.0788	197.05	197.05
3.0788	197.36	197.36
3.0788	201.64	201.64
3.0788	202.99	202.99
3.0788	203.71	203.71
3.0788	205.67	205.67
3.0788	209.23	209.23
3.0788	210.35	210.35
3.0788	215.76	215.76
3.0788	217.05	217.05
3.0788	222.40	222.40
3.0788	223.60	223.60
3.0788	228.92	228.92
3.0788	230.08	230.08
3.0788	235.37	235.37
3.0788	237.07	237.07
3.0788	242.27	242.27
3.0788	244.66	244.66
3.0788	248.21	248.21
3.0788	249.87	249.87
3.0788	250.58	250.58
3.1102	54.360	54.360
3.1102	55.343	55.343
3.1102	81.503	81.503
3.1102	82.345	82.345
3.1102	108.15	108.15
3.1102	109.27	109.27
3.1102	131.95	131.95
3.1102	134.00	134.00
3.1102	148.53	148.53
3.1102	150.28	150.28
3.1102	161.70	161.70
3.1102	162.95	162.95
3.1102	164.97	164.97
3.1102	164.99	164.99
3.1102	166.21	166.21
3.1102	167.68	167.68
3.1102	168.19	168.19
3.1102	170.83	170.83
3.1102	170.94	170.94
3.1102	173.98	173.98
3.1102	174.57	174.57
3.1102	177.46	177.46
3.1102	178.40	178.40
3.1102	181.17	181.17
3.1102	182.57	182.57
3.1102	185.35	185.35
3.1102	187.37	187.37
3.1102	190.19	190.19
3.1102	192.81	192.81
3.1102	195.63	195.63
3.1102	198.74	198.74
3.1102	201.51	201.51
3.1102	202.70	202.70
3.1102	204.60	204.60
3.1102	205.14	205.14
3.1102	207.84	207.84
3.1102	211.69	211.69
3.1102	214.39	214.39
3.1102	218.38	218.38
3.1102	221.05	221.05
3.1102	224.92	224.92
3.1102	227.58	227.58
3.1102	231.39	231.39
3.1102	234.04	234.04
3.1102	238.36	238.36
3.1102	240.96	240.96
3.1102	245.95	245.95
3.1102	248.52	248.52
3.1102	249.16	249.16
3.1102	250.50	250.50
3.1416	54.850	54.850
3.1416	54.850	54.850
3.1416	81.924	81.924
3.1416	81.924	81.924
3.1416	108.71	108.71
3.1416	108.71	108.71
3.1416	132.98	132.98
3.1416	132.98	132.98
3.1416	149.40	149.40
3.1416	149.40	149.40
3.1416	163.34	163.34
3.1416	163.34	163.34
3.1416	164.58	164.58
3.1416	164.58	164.58
3.1416	166.58	166.58
3.1416	166.58	166.58
3.1416	169.25	169.25
3.1416	169.25	169.25
3.1416	172.46	172.46
3.1416	172.46	172.46
3.1416	176.02	176.02
3.1416	176.02	176.02
3.1416	179.78	179.78
3.1416	179.78	179.78
3.1416	183.95	183.95
3.1416	183.95	183.95
3.1416	188.78	188.78
3.1416	188.78	188.78
3.1416	194.21	194.21
3.1416	194.21	194.21
3.1416	200.13	200.13
3.1416	200.13	200.13
3.1416	203.66	203.66
3.1416	203.66	203.66
3.1416	206.46	206.46
3.1416	206.46	206.46
3.1416	213.04	213.04
3.1416	213.04	213.04
3.1416	219.71	219.71
3.1416	219.71	219.71
3.1416	226.25	226.25
3.1416	226.25	226.25
3.1416	232.71	232.71
3.1416	232.71	232.71
3.1416	239.66	239.66
3.1416	239.66	239.66
3.1416	247.25	247.25
3.1416	247.25	247.25
3.1416	249.93	249.93
3.1416	249.93	249.93