kx (1/m)	Eigenfrequency (Hz)	real(freq) (Hz)
0.0000	0.059607	0.059607
0.0000	0.24409	0.24409
0.0000	0.33316	0.33316
0.0000	0.94157	0.94157
0.0000	1.3644	1.3644
0.0000	1.7991	1.7991
0.0000	2.9061	2.9061
0.0000	3.8578	3.8578
0.0000	4.2126	4.2126
0.0000	5.3165	5.3165
0.0000	6.7321	6.7321
0.0000	7.3881	7.3881
0.0000	8.5308	8.5308
0.0000	10.736	10.736
0.0000	12.051	12.051
0.0000	12.543	12.543
0.0000	14.475	14.475
0.0000	16.999	16.999
0.0000	18.270	18.270
0.0000	19.467	19.467
0.0000	21.465	21.465
0.0000	24.698	24.698
0.0000	25.517	25.517
0.0000	27.581	27.581
0.0000	29.750	29.750
0.031416	5.0398	5.0398
0.031416	5.7827	5.7827
0.031416	6.1107	6.1107
0.031416	6.1694	6.1694
0.031416	6.4963	6.4963
0.031416	7.1401	7.1401
0.031416	7.9687	7.9687
0.031416	9.3002	9.3002
0.031416	10.780	10.780
0.031416	12.602	12.602
0.031416	14.425	14.425
0.031416	16.284	16.284
0.031416	18.605	18.605
0.031416	20.685	20.685
0.031416	22.919	22.919
0.031416	25.001	25.001
0.031416	25.020	25.020
0.031416	25.210	25.210
0.031416	25.665	25.665
0.031416	26.561	26.561
0.031416	27.546	27.546
0.031416	28.626	28.626
0.031416	30.406	30.406
0.031416	31.199	31.199
0.031416	34.229	34.229
0.031416	35.013	35.013
0.031416	36.937	36.937
0.031416	39.845	39.845
0.031416	40.789	40.789
0.031416	43.443	43.443
0.031416	46.208	46.208
0.031416	48.534	48.534
0.031416	49.662	49.662
0.031416	53.037	53.037
0.031416	55.700	55.700
0.031416	58.410	58.410
0.031416	59.981	59.981
0.031416	62.569	62.569
0.031416	67.077	67.077
0.031416	68.844	68.844
0.031416	70.039	70.039
0.031416	74.361	74.361
0.031416	77.748	77.748
0.031416	79.880	79.880
0.031416	81.776	81.776
0.031416	85.547	85.547
0.031416	89.273	89.273
0.031416	93.349	93.349
0.031416	93.767	93.767
0.031416	96.841	96.841
0.062832	6.8509	6.8509
0.062832	10.149	10.149
0.062832	11.515	11.515
0.062832	12.213	12.213
0.062832	12.238	12.238
0.062832	12.378	12.378
0.062832	12.727	12.727
0.062832	13.182	13.182
0.062832	14.281	14.281
0.062832	16.033	16.033
0.062832	17.765	17.765
0.062832	19.574	19.574
0.062832	21.077	21.077
0.062832	22.895	22.895
0.062832	25.700	25.700
0.062832	28.498	28.498
0.062832	31.006	31.006
0.062832	33.680	33.680
0.062832	36.273	36.273
0.062832	38.849	38.849
0.062832	42.235	42.235
0.062832	45.096	45.096
0.062832	47.696	47.696
0.062832	50.003	50.003
0.062832	50.045	50.045
0.062832	50.183	50.183
0.062832	50.500	50.500
0.062832	51.053	51.053
0.062832	51.980	51.980
0.062832	52.976	52.976
0.062832	54.330	54.330
0.062832	55.536	55.536
0.062832	58.043	58.043
0.062832	59.143	59.143
0.062832	61.474	61.474
0.062832	63.917	63.917
0.062832	64.717	64.717
0.062832	68.458	68.458
0.062832	70.802	70.802
0.062832	71.815	71.815
0.062832	75.496	75.496
0.062832	78.220	78.220
0.062832	80.192	80.192
0.062832	82.658	82.658
0.062832	85.885	85.885
0.062832	89.970	89.970
0.062832	90.116	90.116
0.062832	93.658	93.658
0.062832	97.405	97.405
0.062832	101.45	101.45
0.094248	8.3634	8.3634
0.094248	11.190	11.190
0.094248	15.646	15.646
0.094248	18.317	18.317
0.094248	18.332	18.332
0.094248	18.408	18.408
0.094248	18.596	18.596
0.094248	18.798	18.798
0.094248	19.066	19.066
0.094248	19.771	19.771
0.094248	21.186	21.186
0.094248	23.134	23.134
0.094248	24.852	24.852
0.094248	25.980	25.980
0.094248	28.022	28.022
0.094248	30.623	30.623
0.094248	33.660	33.660
0.094248	36.621	36.621
0.094248	38.859	38.859
0.094248	41.282	41.282
0.094248	44.364	44.364
0.094248	47.122	47.122
0.094248	50.809	50.809
0.094248	53.713	53.713
0.094248	56.612	56.612
0.094248	60.195	60.195
0.094248	62.704	62.704
0.094248	66.520	66.520
0.094248	69.711	69.711
0.094248	72.674	72.674
0.094248	75.003	75.003
0.094248	75.036	75.036
0.094248	75.160	75.160
0.094248	75.461	75.461
0.094248	75.928	75.928
0.094248	76.574	76.574
0.094248	77.529	77.529
0.094248	78.493	78.493
0.094248	80.022	80.022
0.094248	81.325	81.325
0.094248	84.145	84.145
0.094248	85.119	85.119
0.094248	86.943	86.943
0.094248	90.159	90.159
0.094248	91.545	91.545
0.094248	94.325	94.325
0.094248	96.915	96.915
0.094248	98.539	98.539
0.094248	102.01	102.01
0.094248	105.29	105.29
0.12566	9.5567	9.5567
0.12566	11.867	11.867
0.12566	18.837	18.837
0.12566	21.283	21.283
0.12566	24.422	24.422
0.12566	24.434	24.434
0.12566	24.493	24.493
0.12566	24.652	24.652
0.12566	24.856	24.856
0.12566	25.302	25.302
0.12566	26.029	26.029
0.12566	26.921	26.921
0.12566	28.529	28.529
0.12566	30.178	30.178
0.12566	31.318	31.318
0.12566	33.386	33.386
0.12566	36.158	36.158
0.12566	38.812	38.812
0.12566	41.923	41.923
0.12566	44.378	44.378
0.12566	46.230	46.230
0.12566	49.276	49.276
0.12566	52.723	52.723
0.12566	55.600	55.600
0.12566	59.425	59.425
0.12566	62.192	62.192
0.12566	65.269	65.269
0.12566	68.737	68.737
0.12566	71.254	71.254
0.12566	75.361	75.361
0.12566	78.291	78.291
0.12566	82.050	82.050
0.12566	85.661	85.661
0.12566	88.679	88.679
0.12566	92.840	92.840
0.12566	95.372	95.372
0.12566	99.306	99.306
0.12566	100.00	100.00
0.12566	100.03	100.03
0.12566	100.13	100.13
0.12566	100.41	100.41
0.12566	100.92	100.92
0.12566	101.64	101.64
0.12566	102.37	102.37
0.12566	103.48	103.48
0.12566	104.72	104.72
0.12566	106.79	106.79
0.12566	108.07	108.07
0.12566	110.53	110.53
0.12566	111.70	111.70
0.15708	10.424	10.424
0.15708	12.922	12.922
0.15708	19.794	19.794
0.15708	24.869	24.869
0.15708	28.136	28.136
0.15708	30.526	30.526
0.15708	30.538	30.538
0.15708	30.585	30.585
0.15708	30.713	30.713
0.15708	30.880	30.880
0.15708	31.265	31.265
0.15708	32.066	32.066
0.15708	33.203	33.203
0.15708	34.407	34.407
0.15708	35.559	35.559
0.15708	36.792	36.792
0.15708	39.038	39.038
0.15708	41.624	41.624
0.15708	44.608	44.608
0.15708	47.102	47.102
0.15708	49.410	49.410
0.15708	51.750	51.750
0.15708	54.341	54.341
0.15708	57.878	57.878
0.15708	61.230	61.230
0.15708	64.267	64.267
0.15708	67.997	67.997
0.15708	70.605	70.605
0.15708	73.704	73.704
0.15708	77.120	77.120
0.15708	79.803	79.803
0.15708	84.014	84.014
0.15708	86.868	86.868
0.15708	90.945	90.945
0.15708	94.292	94.292
0.15708	97.811	97.811
0.15708	101.70	101.70
0.15708	104.64	104.64
0.15708	108.77	108.77
0.15708	111.67	111.67
0.15708	115.55	115.55
0.15708	119.04	119.04
0.15708	122.29	122.29
0.15708	125.00	125.00
0.15708	125.04	125.04
0.15708	125.11	125.11
0.15708	125.30	125.30
0.15708	125.64	125.64
0.15708	125.99	125.99
0.15708	126.71	126.71
0.18850	11.184	11.184
0.18850	14.168	14.168
0.18850	20.463	20.463
0.18850	26.974	26.974
0.18850	30.812	30.812
0.18850	35.561	35.561
0.18850	36.631	36.631
0.18850	36.644	36.644
0.18850	36.683	36.683
0.18850	36.790	36.790
0.18850	36.933	36.933
0.18850	37.263	37.263
0.18850	37.969	37.969
0.18850	39.105	39.105
0.18850	40.426	40.426
0.18850	41.208	41.208
0.18850	42.578	42.578
0.18850	44.890	44.890
0.18850	47.253	47.253
0.18850	50.199	50.199
0.18850	52.844	52.844
0.18850	54.425	54.425
0.18850	56.818	56.818
0.18850	60.188	60.188
0.18850	62.951	62.951
0.18850	66.685	66.685
0.18850	69.796	69.796
0.18850	72.966	72.966
0.18850	76.384	76.384
0.18850	78.883	78.883
0.18850	82.013	82.013
0.18850	85.531	85.531
0.18850	88.441	88.441
0.18850	92.650	92.650
0.18850	95.558	95.558
0.18850	99.735	99.735
0.18850	102.99	102.99
0.18850	106.72	106.72
0.18850	110.48	110.48
0.18850	113.64	113.64
0.18850	117.70	117.70
0.18850	120.67	120.67
0.18850	124.54	124.54
0.18850	128.02	128.02
0.18850	131.36	131.36
0.18850	135.58	135.58
0.18850	138.49	138.49
0.18850	143.06	143.06
0.18850	145.96	145.96
0.18850	149.90	149.90
0.21991	11.971	11.971
0.21991	15.450	15.450
0.21991	21.157	21.157
0.21991	27.985	27.985
0.21991	33.559	33.559
0.21991	37.415	37.415
0.21991	42.711	42.711
0.21991	42.737	42.737
0.21991	42.753	42.753
0.21991	42.798	42.798
0.21991	42.899	42.899
0.21991	43.031	43.031
0.21991	43.348	43.348
0.21991	43.986	43.986
0.21991	45.028	45.028
0.21991	46.264	46.264
0.21991	46.972	46.972
0.21991	48.511	48.511
0.21991	50.794	50.794
0.21991	53.288	53.288
0.21991	55.654	55.654
0.21991	58.270	58.270
0.21991	60.012	60.012
0.21991	62.215	62.215
0.21991	65.559	65.559
0.21991	68.830	68.830
0.21991	71.790	71.790
0.21991	75.461	75.461
0.21991	78.391	78.391
0.21991	81.447	81.447
0.21991	84.498	84.498
0.21991	87.139	87.139
0.21991	90.482	90.482
0.21991	94.102	94.102
0.21991	97.207	97.207
0.21991	101.36	101.36
0.21991	104.36	104.36
0.21991	108.53	108.53
0.21991	111.79	111.79
0.21991	115.58	115.58
0.21991	119.32	119.32
0.21991	122.53	122.53
0.21991	126.62	126.62
0.21991	129.56	129.56
0.21991	133.48	133.48
0.21991	136.92	136.92
0.21991	140.25	140.25
0.21991	144.52	144.52
0.21991	147.37	147.37
0.21991	152.09	152.09
0.25133	12.811	12.811
0.25133	16.715	16.715
0.25133	21.928	21.928
0.25133	28.749	28.749
0.25133	35.321	35.321
0.25133	39.592	39.592
0.25133	44.830	44.830
0.25133	48.841	48.841
0.25133	48.855	48.855
0.25133	48.885	48.885
0.25133	48.954	48.954
0.25133	49.053	49.053
0.25133	49.237	49.237
0.25133	49.609	49.609
0.25133	50.205	50.205
0.25133	51.131	51.131
0.25133	52.142	52.142
0.25133	52.894	52.894
0.25133	54.522	54.522
0.25133	56.582	56.582
0.25133	59.346	59.346
0.25133	61.637	61.637
0.25133	63.448	63.448
0.25133	65.349	65.349
0.25133	68.366	68.366
0.25133	70.881	70.881
0.25133	74.530	74.530
0.25133	77.511	77.511
0.25133	80.711	80.711
0.25133	84.082	84.082
0.25133	86.817	86.817
0.25133	89.532	89.532
0.25133	92.678	92.678
0.25133	95.685	95.685
0.25133	99.194	99.194
0.25133	102.86	102.86
0.25133	106.07	106.07
0.25133	110.19	110.19
0.25133	113.24	113.24
0.25133	117.42	117.42
0.25133	120.67	120.67
0.25133	124.47	124.47
0.25133	128.23	128.23
0.25133	131.41	131.41
0.25133	135.56	135.56
0.25133	138.43	138.43
0.25133	142.39	142.39
0.25133	145.81	145.81
0.25133	149.13	149.13
0.25133	153.44	153.44
0.28274	13.695	13.695
0.28274	17.951	17.951
0.28274	22.786	22.786
0.28274	29.473	29.473
0.28274	36.392	36.392
0.28274	41.784	41.784
0.28274	46.322	46.322
0.28274	52.461	52.461
0.28274	54.946	54.946
0.28274	54.961	54.961
0.28274	54.994	54.994
0.28274	55.057	55.057
0.28274	55.149	55.149
0.28274	55.335	55.335
0.28274	55.731	55.731
0.28274	56.366	56.366
0.28274	57.253	57.253
0.28274	58.036	58.036
0.28274	58.936	58.936
0.28274	60.788	60.788
0.28274	62.598	62.598
0.28274	65.012	65.012
0.28274	67.720	67.720
0.28274	69.109	69.109
0.28274	70.785	70.785
0.28274	74.045	74.045
0.28274	77.024	77.024
0.28274	79.849	79.849
0.28274	83.439	83.439
0.28274	86.271	86.271
0.28274	89.457	89.457
0.28274	92.332	92.332
0.28274	94.929	94.929
0.28274	97.798	97.798
0.28274	101.29	101.29
0.28274	104.49	104.49
0.28274	108.09	108.09
0.28274	111.76	111.76
0.28274	115.03	115.03
0.28274	119.15	119.15
0.28274	122.19	122.19
0.28274	126.40	126.40
0.28274	129.62	129.62
0.28274	133.44	133.44
0.28274	137.18	137.18
0.28274	140.32	140.32
0.28274	144.48	144.48
0.28274	147.29	147.29
0.28274	151.25	151.25
0.28274	154.72	154.72
0.31416	14.606	14.606
0.31416	19.161	19.161
0.31416	23.727	23.727
0.31416	30.215	30.215
0.31416	37.215	37.215
0.31416	43.504	43.504
0.31416	48.007	48.007
0.31416	53.818	53.818
0.31416	59.898	59.898
0.31416	61.051	61.051
0.31416	61.066	61.066
0.31416	61.105	61.105
0.31416	61.164	61.164
0.31416	61.249	61.249
0.31416	61.436	61.436
0.31416	61.841	61.841
0.31416	62.509	62.509
0.31416	63.363	63.363
0.31416	63.952	63.952
0.31416	64.913	64.913
0.31416	66.845	66.845
0.31416	69.104	69.104
0.31416	70.870	70.870
0.31416	73.184	73.184
0.31416	74.765	74.765
0.31416	77.162	77.162
0.31416	79.464	79.464
0.31416	83.067	83.067
0.31416	85.735	85.735
0.31416	88.925	88.925
0.31416	92.186	92.186
0.31416	94.943	94.943
0.31416	97.680	97.680
0.31416	100.34	100.34
0.31416	103.42	103.42
0.31416	106.51	106.51
0.31416	110.22	110.22
0.31416	113.42	113.42
0.31416	117.13	117.13
0.31416	120.76	120.76
0.31416	124.09	124.09
0.31416	128.20	128.20
0.31416	131.22	131.22
0.31416	135.48	135.48
0.31416	138.62	138.62
0.31416	142.47	142.47
0.31416	146.16	146.16
0.31416	149.24	149.24
0.31416	153.36	153.36
0.31416	156.18	156.18
0.34558	15.528	15.528
0.34558	20.352	20.352
0.34558	24.739	24.739
0.34558	30.995	30.995
0.34558	37.962	37.962
0.34558	44.724	44.724
0.34558	49.874	49.874
0.34558	54.971	54.971
0.34558	61.620	61.620
0.34558	66.780	66.780
0.34558	67.156	67.156
0.34558	67.171	67.171
0.34558	67.217	67.217
0.34558	67.279	67.279
0.34558	67.357	67.357
0.34558	67.548	67.548
0.34558	67.967	67.967
0.34558	68.681	68.681
0.34558	69.549	69.549
0.34558	70.043	70.043
0.34558	71.074	71.074
0.34558	72.721	72.721
0.34558	75.165	75.165
0.34558	77.465	77.465
0.34558	78.786	78.786
0.34558	80.193	80.193
0.34558	83.242	83.242
0.34558	85.752	85.752
0.34558	88.507	88.507
0.34558	92.011	92.011
0.34558	94.578	94.578
0.34558	97.860	97.860
0.34558	100.63	100.63
0.34558	103.10	103.10
0.34558	105.85	105.85
0.34558	108.88	108.88
0.34558	112.37	112.37
0.34558	115.43	115.43
0.34558	119.36	119.36
0.34558	122.43	122.43
0.34558	126.32	126.32
0.34558	129.81	129.81
0.34558	133.26	133.26
0.34558	137.31	137.31
0.34558	140.34	140.34
0.34558	144.60	144.60
0.34558	147.68	147.68
0.34558	151.49	151.49
0.34558	155.14	155.14
0.34558	158.12	158.12
0.37699	16.453	16.453
0.37699	21.532	21.532
0.37699	25.809	25.809
0.37699	31.821	31.821
0.37699	38.697	38.697
0.37699	45.659	45.659
0.37699	51.620	51.620
0.37699	56.300	56.300
0.37699	62.634	62.634
0.37699	69.450	69.450
0.37699	73.206	73.206
0.37699	73.261	73.261
0.37699	73.279	73.279
0.37699	73.332	73.332
0.37699	73.402	73.402
0.37699	73.472	73.472
0.37699	73.665	73.665
0.37699	74.071	74.071
0.37699	74.769	74.769
0.37699	75.576	75.576
0.37699	76.164	76.164
0.37699	77.631	77.631
0.37699	78.980	78.980
0.37699	80.925	80.925
0.37699	83.460	83.460
0.37699	84.858	84.858
0.37699	86.364	86.364
0.37699	88.749	88.749
0.37699	92.180	92.180
0.37699	94.475	94.475
0.37699	97.656	97.656
0.37699	100.80	100.80
0.37699	103.43	103.43
0.37699	106.27	106.27
0.37699	108.63	108.63
0.37699	111.49	111.49
0.37699	114.59	114.59
0.37699	117.87	117.87
0.37699	121.47	121.47
0.37699	124.53	124.53
0.37699	128.60	128.60
0.37699	131.53	131.53
0.37699	135.61	135.61
0.37699	138.93	138.93
0.37699	142.52	142.52
0.37699	146.46	146.46
0.37699	149.52	149.52
0.37699	153.71	153.71
0.37699	156.77	156.77
0.37699	160.44	160.44
0.40841	17.373	17.373
0.40841	22.704	22.704
0.40841	26.924	26.924
0.40841	32.698	32.698
0.40841	39.447	39.447
0.40841	46.469	46.469
0.40841	53.028	53.028
0.40841	57.914	57.914
0.40841	63.582	63.582
0.40841	70.591	70.591
0.40841	77.004	77.004
0.40841	79.366	79.366
0.40841	79.378	79.378
0.40841	79.418	79.418
0.40841	79.493	79.493
0.40841	79.552	79.552
0.40841	79.650	79.650
0.40841	79.869	79.869
0.40841	80.239	80.239
0.40841	80.855	80.855
0.40841	81.563	81.563
0.40841	82.154	82.154
0.40841	83.727	83.727
0.40841	85.745	85.745
0.40841	87.174	87.174
0.40841	89.088	89.088
0.40841	90.455	90.455
0.40841	92.978	92.978
0.40841	94.898	94.898
0.40841	97.780	97.780
0.40841	101.06	101.06
0.40841	103.39	103.39
0.40841	106.69	106.69
0.40841	109.38	109.38
0.40841	111.75	111.75
0.40841	114.37	114.37
0.40841	117.09	117.09
0.40841	120.53	120.53
0.40841	123.55	123.55
0.40841	127.12	127.12
0.40841	130.61	130.61
0.40841	133.79	133.79
0.40841	137.86	137.86
0.40841	140.75	140.75
0.40841	144.93	144.93
0.40841	148.12	148.12
0.40841	151.82	151.82
0.40841	155.63	155.63
0.40841	158.73	158.73
0.40841	162.76	162.76
0.43982	18.284	18.284
0.43982	23.873	23.873
0.43982	28.074	28.074
0.43982	33.623	33.623
0.43982	40.224	40.224
0.43982	47.231	47.231
0.43982	54.117	54.117
0.43982	59.660	59.660
0.43982	64.677	64.677
0.43982	71.436	71.436
0.43982	78.642	78.642
0.43982	83.937	83.937
0.43982	85.471	85.471
0.43982	85.483	85.483
0.43982	85.527	85.527
0.43982	85.616	85.616
0.43982	85.684	85.684
0.43982	85.792	85.792
0.43982	86.084	86.084
0.43982	86.605	86.605
0.43982	87.269	87.269
0.43982	87.675	87.675
0.43982	88.267	88.267
0.43982	89.660	89.660
0.43982	91.753	91.753
0.43982	94.005	94.005
0.43982	95.179	95.179
0.43982	96.160	96.160
0.43982	98.692	98.692
0.43982	101.72	101.72
0.43982	103.68	103.68
0.43982	106.90	106.90
0.43982	109.84	109.84
0.43982	112.36	112.36
0.43982	115.25	115.25
0.43982	117.44	117.44
0.43982	120.03	120.03
0.43982	123.14	123.14
0.43982	126.06	126.06
0.43982	129.80	129.80
0.43982	132.64	132.64
0.43982	136.51	136.51
0.43982	139.78	139.78
0.43982	143.19	143.19
0.43982	147.13	147.13
0.43982	150.08	150.08
0.43982	154.25	154.25
0.43982	157.37	157.37
0.43982	161.09	161.09
0.43982	164.79	164.79
0.47124	19.185	19.185
0.47124	25.038	25.038
0.47124	29.251	29.251
0.47124	34.596	34.596
0.47124	41.035	41.035
0.47124	47.984	47.984
0.47124	55.017	55.017
0.47124	61.261	61.261
0.47124	66.059	66.059
0.47124	72.271	72.271
0.47124	79.543	79.543
0.47124	86.615	86.615
0.47124	90.499	90.499
0.47124	91.576	91.576
0.47124	91.588	91.588
0.47124	91.631	91.631
0.47124	91.726	91.726
0.47124	91.819	91.819
0.47124	91.901	91.901
0.47124	92.185	92.185
0.47124	92.713	92.713
0.47124	93.440	93.440
0.47124	93.887	93.887
0.47124	95.010	95.010
0.47124	96.045	96.045
0.47124	97.629	97.629
0.47124	99.895	99.895
0.47124	101.25	101.25
0.47124	102.95	102.95
0.47124	104.55	104.55
0.47124	107.59	107.59
0.47124	110.48	110.48
0.47124	112.68	112.68
0.47124	115.93	115.93
0.47124	118.50	118.50
0.47124	120.85	120.85
0.47124	123.32	123.32
0.47124	125.82	125.82
0.47124	129.06	129.06
0.47124	132.18	132.18
0.47124	135.31	135.31
0.47124	139.12	139.12
0.47124	141.88	141.88
0.47124	145.97	145.97
0.47124	149.01	149.01
0.47124	152.65	152.65
0.47124	156.40	156.40
0.47124	159.48	159.48
0.47124	163.53	163.53
0.47124	165.63	165.63
0.50265	20.075	20.075
0.50265	26.198	26.198
0.50265	30.448	30.448
0.50265	35.613	35.613
0.50265	41.882	41.882
0.50265	48.747	48.747
0.50265	55.827	55.827
0.50265	62.557	62.557
0.50265	67.723	67.723
0.50265	73.220	73.220
0.50265	80.313	80.313
0.50265	87.764	87.764
0.50265	94.142	94.142
0.50265	97.342	97.342
0.50265	97.681	97.681
0.50265	97.692	97.692
0.50265	97.736	97.736
0.50265	97.836	97.836
0.50265	97.961	97.961
0.50265	98.016	98.016
0.50265	98.283	98.283
0.50265	98.782	98.782
0.50265	99.474	99.474
0.50265	99.915	99.915
0.50265	101.13	101.13
0.50265	102.89	102.89
0.50265	104.25	104.25
0.50265	105.72	105.72
0.50265	106.95	106.95
0.50265	109.11	109.11
0.50265	111.49	111.49
0.50265	113.40	113.40
0.50265	116.59	116.59
0.50265	119.22	119.22
0.50265	121.73	121.73
0.50265	124.58	124.58
0.50265	126.66	126.66
0.50265	129.04	129.04
0.50265	132.06	132.06
0.50265	134.74	134.74
0.50265	138.42	138.42
0.50265	141.30	141.30
0.50265	144.75	144.75
0.50265	148.42	148.42
0.50265	151.27	151.27
0.50265	155.41	155.41
0.50265	158.32	158.32
0.50265	162.12	162.12
0.50265	164.97	164.97
0.50265	165.68	165.68
0.53407	20.955	20.955
0.53407	27.353	27.353
0.53407	31.660	31.660
0.53407	36.670	36.670
0.53407	42.767	42.767
0.53407	49.528	49.528
0.53407	56.600	56.600
0.53407	63.592	63.592
0.53407	69.450	69.450
0.53407	74.406	74.406
0.53407	81.091	81.091
0.53407	88.571	88.571
0.53407	95.986	95.986
0.53407	100.95	100.95
0.53407	103.79	103.79
0.53407	103.80	103.80
0.53407	103.83	103.83
0.53407	103.93	103.93
0.53407	104.08	104.08
0.53407	104.13	104.13
0.53407	104.32	104.32
0.53407	104.68	104.68
0.53407	105.11	105.11
0.53407	105.58	105.58
0.53407	105.99	105.99
0.53407	107.12	107.12
0.53407	108.88	108.88
0.53407	110.94	110.94
0.53407	112.23	112.23
0.53407	113.02	113.02
0.53407	114.90	114.90
0.53407	117.80	117.80
0.53407	120.16	120.16
0.53407	122.43	122.43
0.53407	125.52	125.52
0.53407	127.94	127.94
0.53407	130.37	130.37
0.53407	132.66	132.66
0.53407	134.93	134.93
0.53407	138.02	138.02
0.53407	141.16	141.16
0.53407	143.96	143.96
0.53407	147.85	147.85
0.53407	150.52	150.52
0.53407	154.28	154.28
0.53407	157.71	157.71
0.53407	160.77	160.77
0.53407	164.29	164.29
0.53407	164.80	164.80
0.53407	167.73	167.73
0.56549	21.825	21.825
0.56549	28.501	28.501
0.56549	32.884	32.884
0.56549	37.763	37.763
0.56549	43.689	43.689
0.56549	50.335	50.335
0.56549	57.364	57.364
0.56549	64.477	64.477
0.56549	70.971	70.971
0.56549	75.916	75.916
0.56549	81.955	81.955
0.56549	89.311	89.311
0.56549	96.945	96.945
0.56549	103.95	103.95
0.56549	107.63	107.63
0.56549	109.89	109.89
0.56549	109.90	109.90
0.56549	109.94	109.94
0.56549	110.03	110.03
0.56549	110.19	110.19
0.56549	110.29	110.29
0.56549	110.44	110.44
0.56549	110.84	110.84
0.56549	111.47	111.47
0.56549	111.89	111.89
0.56549	112.73	112.73
0.56549	113.63	113.63
0.56549	114.88	114.88
0.56549	116.85	116.85
0.56549	118.18	118.18
0.56549	119.79	119.79
0.56549	121.44	121.44
0.56549	123.64	123.64
0.56549	126.60	126.60
0.56549	128.90	128.90
0.56549	131.48	131.48
0.56549	134.21	134.21
0.56549	136.22	136.22
0.56549	138.48	138.48
0.56549	141.33	141.33
0.56549	143.81	143.81
0.56549	147.37	147.37
0.56549	150.33	150.33
0.56549	153.39	153.39
0.56549	157.28	157.28
0.56549	159.87	159.87
0.56549	163.58	163.58
0.56549	163.83	163.83
0.56549	167.03	167.03
0.56549	170.32	170.32
0.59690	22.686	22.686
0.59690	29.640	29.640
0.59690	34.116	34.116
0.59690	38.889	38.889
0.59690	44.648	44.648
0.59690	51.169	51.169
0.59690	58.135	58.135
0.59690	65.288	65.288
0.59690	72.190	72.190
0.59690	77.658	77.658
0.59690	82.997	82.997
0.59690	90.064	90.064
0.59690	97.720	97.720
0.59690	105.35	105.35
0.59690	111.17	111.17
0.59690	114.99	114.99
0.59690	116.00	116.00
0.59690	116.01	116.01
0.59690	116.04	116.04
0.59690	116.13	116.13
0.59690	116.30	116.30
0.59690	116.45	116.45
0.59690	116.55	116.55
0.59690	116.93	116.93
0.59690	117.53	117.53
0.59690	117.96	117.96
0.59690	118.86	118.86
0.59690	120.36	120.36
0.59690	121.81	121.81
0.59690	122.93	122.93
0.59690	124.02	124.02
0.59690	125.73	125.73
0.59690	128.23	128.23
0.59690	130.13	130.13
0.59690	132.58	132.58
0.59690	135.39	135.39
0.59690	137.68	137.68
0.59690	140.23	140.23
0.59690	142.35	142.35
0.59690	144.36	144.36
0.59690	147.35	147.35
0.59690	150.44	150.44
0.59690	152.99	152.99
0.59690	156.84	156.84
0.59690	159.56	159.56
0.59690	162.85	162.85
0.59690	162.92	162.92
0.59690	166.65	166.65
0.59690	169.34	169.34
0.59690	173.33	173.33
0.62832	23.539	23.539
0.62832	30.770	30.770
0.62832	35.352	35.352
0.62832	40.044	40.044
0.62832	45.642	45.642
0.62832	52.033	52.033
0.62832	58.920	58.920
0.62832	66.069	66.069
0.62832	73.184	73.184
0.62832	79.362	79.362
0.62832	84.327	84.327
0.62832	90.880	90.880
0.62832	98.453	98.453
0.62832	106.24	106.24
0.62832	113.57	113.57
0.62832	117.88	117.88
0.62832	122.10	122.10
0.62832	122.11	122.11
0.62832	122.14	122.14
0.62832	122.23	122.23
0.62832	122.39	122.39
0.62832	122.60	122.60
0.62832	122.64	122.64
0.62832	122.88	122.88
0.62832	123.19	123.19
0.62832	123.66	123.66
0.62832	124.05	124.05
0.62832	124.90	124.90
0.62832	126.37	126.37
0.62832	128.19	128.19
0.62832	129.56	129.56
0.62832	130.46	130.46
0.62832	131.85	131.85
0.62832	134.26	134.26
0.62832	136.81	136.81
0.62832	138.92	138.92
0.62832	141.57	141.57
0.62832	144.05	144.05
0.62832	146.10	146.10
0.62832	148.30	148.30
0.62832	150.90	150.90
0.62832	153.18	153.18
0.62832	156.66	156.66
0.62832	159.64	159.64
0.62832	162.09	162.09
0.62832	162.38	162.38
0.62832	166.32	166.32
0.62832	168.88	168.88
0.62832	172.50	172.50
0.62832	176.01	176.01
0.65973	24.383	24.383
0.65973	31.891	31.891
0.65973	36.590	36.590
0.65973	41.224	41.224
0.65973	46.670	46.670
0.65973	52.926	52.926
0.65973	59.724	59.724
0.65973	66.842	66.842
0.65973	74.055	74.055
0.65973	80.798	80.798
0.65973	85.977	85.977
0.65973	91.825	91.825
0.65973	99.197	99.197
0.65973	107.01	107.01
0.65973	114.79	114.79
0.65973	121.14	121.14
0.65973	125.08	125.08
0.65973	128.21	128.21
0.65973	128.21	128.21
0.65973	128.25	128.25
0.65973	128.33	128.33
0.65973	128.50	128.50
0.65973	128.75	128.75
0.65973	128.81	128.81
0.65973	129.09	129.09
0.65973	129.60	129.60
0.65973	130.06	130.06
0.65973	130.67	130.67
0.65973	131.58	131.58
0.65973	132.55	132.55
0.65973	134.18	134.18
0.65973	135.51	135.51
0.65973	136.81	136.81
0.65973	138.71	138.71
0.65973	140.50	140.50
0.65973	143.02	143.02
0.65973	145.43	145.43
0.65973	147.74	147.74
0.65973	150.37	150.37
0.65973	152.30	152.30
0.65973	154.11	154.11
0.65973	157.02	157.02
0.65973	159.99	159.99
0.65973	161.31	161.31
0.65973	162.34	162.34
0.65973	166.11	166.11
0.65973	168.89	168.89
0.65973	171.89	171.89
0.65973	175.77	175.77
0.65973	178.34	178.34
0.69115	25.221	25.221
0.69115	33.001	33.001
0.69115	37.827	37.827
0.69115	42.426	42.426
0.69115	47.730	47.730
0.69115	53.850	53.850
0.69115	60.551	60.551
0.69115	67.619	67.619
0.69115	74.866	74.866
0.69115	81.944	81.944
0.69115	87.768	87.768
0.69115	92.996	92.996
0.69115	99.987	99.987
0.69115	107.75	107.75
0.69115	115.68	115.68
0.69115	123.18	123.18
0.69115	127.99	127.99
0.69115	133.14	133.14
0.69115	134.31	134.31
0.69115	134.32	134.32
0.69115	134.35	134.35
0.69115	134.44	134.44
0.69115	134.60	134.60
0.69115	134.87	134.87
0.69115	135.00	135.00
0.69115	135.21	135.21
0.69115	135.69	135.69
0.69115	136.16	136.16
0.69115	136.79	136.79
0.69115	138.04	138.04
0.69115	139.49	139.49
0.69115	140.63	140.63
0.69115	141.53	141.53
0.69115	142.86	142.86
0.69115	145.06	145.06
0.69115	147.13	147.13
0.69115	149.30	149.30
0.69115	151.89	151.89
0.69115	154.05	154.05
0.69115	156.28	156.28
0.69115	158.46	158.46
0.69115	160.51	160.51
0.69115	160.72	160.72
0.69115	162.83	162.83
0.69115	166.26	166.26
0.69115	169.19	169.19
0.69115	171.69	171.69
0.69115	175.59	175.59
0.69115	178.23	178.23
0.69115	181.49	181.49
0.72257	26.052	26.052
0.72257	34.103	34.103
0.72257	39.061	39.061
0.72257	43.646	43.646
0.72257	48.820	48.820
0.72257	54.804	54.804
0.72257	61.402	61.402
0.72257	68.407	68.407
0.72257	75.652	75.652
0.72257	82.901	82.901
0.72257	89.408	89.408
0.72257	94.488	94.488
0.72257	100.87	100.87
0.72257	108.50	108.50
0.72257	116.46	116.46
0.72257	124.35	124.35
0.72257	130.91	130.91
0.72257	135.17	135.17
0.72257	140.42	140.42
0.72257	140.42	140.42
0.72257	140.46	140.46
0.72257	140.53	140.53
0.72257	140.68	140.68
0.72257	140.92	140.92
0.72257	141.19	141.19
0.72257	141.22	141.22
0.72257	141.50	141.50
0.72257	141.90	141.90
0.72257	142.30	142.30
0.72257	142.91	142.91
0.72257	144.12	144.12
0.72257	145.68	145.68
0.72257	147.08	147.08
0.72257	147.94	147.94
0.72257	149.33	149.33
0.72257	151.31	151.31
0.72257	153.60	153.60
0.72257	155.65	155.65
0.72257	158.13	158.13
0.72257	159.69	159.69
0.72257	160.70	160.70
0.72257	162.42	162.42
0.72257	164.20	164.20
0.72257	167.00	167.00
0.72257	169.76	169.76
0.72257	171.96	171.96
0.72257	175.65	175.65
0.72257	178.49	178.49
0.72257	181.19	181.19
0.72257	185.10	185.10
0.75398	26.877	26.877
0.75398	35.195	35.195
0.75398	40.290	40.290
0.75398	44.880	44.880
0.75398	49.939	49.939
0.75398	55.787	55.787
0.75398	62.278	62.278
0.75398	69.212	69.212
0.75398	76.430	76.430
0.75398	83.759	83.759
0.75398	90.745	90.745
0.75398	96.250	96.250
0.75398	101.92	101.92
0.75398	109.27	109.27
0.75398	117.21	117.21
0.75398	125.25	125.25
0.75398	132.81	132.81
0.75398	137.89	137.89
0.75398	143.28	143.28
0.75398	146.52	146.52
0.75398	146.53	146.53
0.75398	146.56	146.56
0.75398	146.64	146.64
0.75398	146.79	146.79
0.75398	147.05	147.05
0.75398	147.40	147.40
0.75398	147.42	147.42
0.75398	147.83	147.83
0.75398	148.31	148.31
0.75398	148.75	148.75
0.75398	149.59	149.59
0.75398	150.53	150.53
0.75398	151.86	151.86
0.75398	153.14	153.14
0.75398	154.15	154.15
0.75398	155.87	155.87
0.75398	157.70	157.70
0.75398	158.85	158.85
0.75398	160.01	160.01
0.75398	162.31	162.31
0.75398	164.24	164.24
0.75398	166.74	166.74
0.75398	168.90	168.90
0.75398	170.74	170.74
0.75398	172.76	172.76
0.75398	176.13	176.13
0.75398	178.99	178.99
0.75398	181.31	181.31
0.75398	185.12	185.12
0.75398	187.94	187.94
0.78540	27.696	27.696
0.78540	36.278	36.278
0.78540	41.514	41.514
0.78540	46.126	46.126
0.78540	51.085	51.085
0.78540	56.799	56.799
0.78540	63.180	63.180
0.78540	70.035	70.035
0.78540	77.212	77.212
0.78540	84.569	84.569
0.78540	91.824	91.824
0.78540	98.030	98.030
0.78540	103.24	103.24
0.78540	110.12	110.12
0.78540	117.96	117.96
0.78540	126.05	126.05
0.78540	134.02	134.02
0.78540	140.55	140.55
0.78540	145.19	145.19
0.78540	151.70	151.70
0.78540	152.63	152.63
0.78540	152.63	152.63
0.78540	152.67	152.67
0.78540	152.74	152.74
0.78540	152.90	152.90
0.78540	153.17	153.17
0.78540	153.54	153.54
0.78540	153.63	153.63
0.78540	153.97	153.97
0.78540	154.45	154.45
0.78540	154.90	154.90
0.78540	155.88	155.88
0.78540	157.15	157.15
0.78540	157.99	157.99
0.78540	158.38	158.38
0.78540	159.31	159.31
0.78540	160.43	160.43
0.78540	162.33	162.33
0.78540	164.17	164.17
0.78540	166.18	166.18
0.78540	168.79	168.79
0.78540	171.11	171.11
0.78540	172.72	172.72
0.78540	174.65	174.65
0.78540	177.25	177.25
0.78540	179.75	179.75
0.78540	181.87	181.87
0.78540	185.47	185.47
0.78540	187.32	187.32
0.78540	188.40	188.40
0.81681	28.511	28.511
0.81681	37.352	37.352
0.81681	42.731	42.731
0.81681	47.381	47.381
0.81681	52.254	52.254
0.81681	57.839	57.839
0.81681	64.106	64.106
0.81681	70.878	70.878
0.81681	78.004	78.004
0.81681	85.358	85.358
0.81681	92.750	92.750
0.81681	99.572	99.572
0.81681	104.88	104.88
0.81681	111.08	111.08
0.81681	118.73	118.73
0.81681	126.82	126.82
0.81681	134.95	134.95
0.81681	142.46	142.46
0.81681	147.59	147.59
0.81681	153.41	153.41
0.81681	157.12	157.12
0.81681	158.73	158.73
0.81681	158.74	158.74
0.81681	158.77	158.77
0.81681	158.84	158.84
0.81681	158.97	158.97
0.81681	159.19	159.19
0.81681	159.50	159.50
0.81681	159.84	159.84
0.81681	159.86	159.86
0.81681	160.23	160.23
0.81681	160.65	160.65
0.81681	161.11	161.11
0.81681	162.09	162.09
0.81681	163.42	163.42
0.81681	164.74	164.74
0.81681	165.54	165.54
0.81681	166.76	166.76
0.81681	168.67	168.67
0.81681	170.92	170.92
0.81681	172.73	172.73
0.81681	174.77	174.77
0.81681	177.43	177.43
0.81681	179.54	179.54
0.81681	180.97	180.97
0.81681	183.01	183.01
0.81681	186.28	186.28
0.81681	186.41	186.41
0.81681	189.09	189.09
0.81681	191.25	191.25
0.84823	29.321	29.321
0.84823	38.419	38.419
0.84823	43.941	43.941
0.84823	48.641	48.641
0.84823	53.446	53.446
0.84823	58.905	58.905
0.84823	65.059	65.059
0.84823	71.742	71.742
0.84823	78.808	78.808
0.84823	86.141	86.141
0.84823	93.597	93.597
0.84823	100.81	100.81
0.84823	106.70	106.70
0.84823	112.26	112.26
0.84823	119.55	119.55
0.84823	127.58	127.58
0.84823	135.79	135.79
0.84823	143.75	143.75
0.84823	150.05	150.05
0.84823	155.12	155.12
0.84823	156.24	156.24
0.84823	161.96	161.96
0.84823	164.84	164.84
0.84823	164.85	164.85
0.84823	164.87	164.87
0.84823	164.94	164.94
0.84823	165.09	165.09
0.84823	165.34	165.34
0.84823	165.71	165.71
0.84823	166.09	166.09
0.84823	166.16	166.16
0.84823	166.59	166.59
0.84823	166.97	166.97
0.84823	167.54	167.54
0.84823	168.47	168.47
0.84823	169.75	169.75
0.84823	171.02	171.02
0.84823	171.90	171.90
0.84823	173.32	173.32
0.84823	174.88	174.88
0.84823	177.11	177.11
0.84823	179.65	179.65
0.84823	181.54	181.54
0.84823	183.32	183.32
0.84823	185.41	185.41
0.84823	185.49	185.49
0.84823	187.77	187.77
0.84823	190.04	190.04
0.84823	192.08	192.08
0.84823	195.56	195.56
0.87965	30.126	30.126
0.87965	39.478	39.478
0.87965	45.143	45.143
0.87965	49.905	49.905
0.87965	54.658	54.658
0.87965	59.998	59.998
0.87965	66.036	66.036
0.87965	72.628	72.628
0.87965	79.629	79.629
0.87965	86.927	86.927
0.87965	94.406	94.406
0.87965	101.84	101.84
0.87965	108.42	108.42
0.87965	113.72	113.72
0.87965	120.46	120.46
0.87965	128.35	128.35
0.87965	136.57	136.57
0.87965	144.75	144.75
0.87965	152.04	152.04
0.87965	155.34	155.34
0.87965	157.15	157.15
0.87965	163.51	163.51
0.87965	170.12	170.12
0.87965	170.94	170.94
0.87965	170.95	170.95
0.87965	170.98	170.98
0.87965	171.05	171.05
0.87965	171.20	171.20
0.87965	171.46	171.46
0.87965	171.86	171.86
0.87965	172.33	172.33
0.87965	172.36	172.36
0.87965	172.82	172.82
0.87965	173.21	173.21
0.87965	173.91	173.91
0.87965	174.91	174.91
0.87965	176.04	176.04
0.87965	177.17	177.17
0.87965	178.13	178.13
0.87965	179.95	179.95
0.87965	181.85	181.85
0.87965	183.33	183.33
0.87965	184.56	184.56
0.87965	185.66	185.66
0.87965	188.32	188.32
0.87965	190.34	190.34
0.87965	191.54	191.54
0.87965	193.57	193.57
0.87965	196.69	196.69
0.87965	199.53	199.53
0.91106	30.928	30.928
0.91106	40.531	40.531
0.91106	46.337	46.337
0.91106	51.169	51.169
0.91106	55.887	55.887
0.91106	61.116	61.116
0.91106	67.038	67.038
0.91106	73.536	73.536
0.91106	80.467	80.467
0.91106	87.721	87.721
0.91106	95.197	95.197
0.91106	102.74	102.74
0.91106	109.85	109.85
0.91106	115.47	115.47
0.91106	121.52	121.52
0.91106	129.16	129.16
0.91106	137.34	137.34
0.91106	145.62	145.62
0.91106	153.48	153.48
0.91106	154.43	154.43
0.91106	159.40	159.40
0.91106	164.97	164.97
0.91106	172.18	172.18
0.91106	177.05	177.05
0.91106	177.06	177.06
0.91106	177.08	177.08
0.91106	177.13	177.13
0.91106	177.22	177.22
0.91106	177.39	177.39
0.91106	177.66	177.66
0.91106	178.07	178.07
0.91106	178.58	178.58
0.91106	178.60	178.60
0.91106	179.05	179.05
0.91106	179.44	179.44
0.91106	180.22	180.22
0.91106	181.43	181.43
0.91106	182.68	182.68
0.91106	183.47	183.47
0.91106	183.63	183.63
0.91106	184.36	184.36
0.91106	186.06	186.06
0.91106	188.31	188.31
0.91106	190.67	190.67
0.91106	192.19	192.19
0.91106	194.21	194.21
0.91106	196.40	196.40
0.91106	198.54	198.54
0.91106	200.70	200.70
0.91106	202.61	202.61
0.94248	31.725	31.725
0.94248	41.576	41.576
0.94248	47.524	47.524
0.94248	52.432	52.432
0.94248	57.132	57.132
0.94248	62.257	62.257
0.94248	68.065	68.065
0.94248	74.466	74.466
0.94248	81.323	81.323
0.94248	88.526	88.526
0.94248	95.984	95.984
0.94248	103.58	103.58
0.94248	111.00	111.00
0.94248	117.28	117.28
0.94248	122.81	122.81
0.94248	130.02	130.02
0.94248	138.12	138.12
0.94248	146.43	146.43
0.94248	153.51	153.51
0.94248	154.58	154.58
0.94248	161.47	161.47
0.94248	166.65	166.65
0.94248	173.59	173.59
0.94248	180.56	180.56
0.94248	182.68	182.68
0.94248	183.16	183.16
0.94248	183.16	183.16
0.94248	183.19	183.19
0.94248	183.26	183.26
0.94248	183.39	183.39
0.94248	183.62	183.62
0.94248	183.98	183.98
0.94248	184.44	184.44
0.94248	184.86	184.86
0.94248	184.93	184.93
0.94248	185.33	185.33
0.94248	185.69	185.69
0.94248	186.44	186.44
0.94248	187.64	187.64
0.94248	188.99	188.99
0.94248	189.89	189.89
0.94248	191.39	191.39
0.94248	192.79	192.79
0.94248	194.37	194.37
0.94248	196.79	196.79
0.94248	199.38	199.38
0.94248	201.33	201.33
0.94248	202.20	202.20
0.94248	202.50	202.50
0.94248	204.40	204.40
0.97389	32.520	32.520
0.97389	42.615	42.615
0.97389	48.703	48.703
0.97389	53.693	53.693
0.97389	58.389	58.389
0.97389	63.421	63.421
0.97389	69.115	69.115
0.97389	75.418	75.418
0.97389	82.197	82.197
0.97389	89.345	89.345
0.97389	96.772	96.772
0.97389	104.38	104.38
0.97389	111.98	111.98
0.97389	118.90	118.90
0.97389	124.41	124.41
0.97389	131.00	131.00
0.97389	138.91	138.91
0.97389	147.22	147.22
0.97389	152.58	152.58
0.97389	155.51	155.51
0.97389	163.12	163.12
0.97389	168.63	168.63
0.97389	174.85	174.85
0.97389	181.73	181.73
0.97389	182.49	182.49
0.97389	188.10	188.10
0.97389	189.26	189.26
0.97389	189.27	189.27
0.97389	189.30	189.30
0.97389	189.36	189.36
0.97389	189.50	189.50
0.97389	189.75	189.75
0.97389	190.15	190.15
0.97389	190.71	190.71
0.97389	191.14	191.14
0.97389	191.32	191.32
0.97389	191.71	191.71
0.97389	192.24	192.24
0.97389	193.16	193.16
0.97389	194.06	194.06
0.97389	195.13	195.13
0.97389	196.00	196.00
0.97389	197.57	197.57
0.97389	199.71	199.71
0.97389	201.26	201.26
0.97389	201.85	201.85
0.97389	203.20	203.20
0.97389	205.32	205.32
0.97389	207.57	207.57
0.97389	209.54	209.54
1.0053	33.311	33.311
1.0053	43.649	43.649
1.0053	49.874	49.874
1.0053	54.950	54.950
1.0053	59.657	59.657
1.0053	64.606	64.606
1.0053	70.189	70.189
1.0053	76.393	76.393
1.0053	83.092	83.092
1.0053	90.179	90.179
1.0053	97.568	97.568
1.0053	105.18	105.18
1.0053	112.87	112.87
1.0053	120.23	120.23
1.0053	126.21	126.21
1.0053	132.15	132.15
1.0053	139.75	139.75
1.0053	147.99	147.99
1.0053	151.64	151.64
1.0053	156.35	156.35
1.0053	164.37	164.37
1.0053	170.72	170.72
1.0053	176.22	176.22
1.0053	180.76	180.76
1.0053	183.79	183.79
1.0053	191.13	191.13
1.0053	195.35	195.35
1.0053	195.37	195.37
1.0053	195.38	195.38
1.0053	195.41	195.41
1.0053	195.49	195.49
1.0053	195.64	195.64
1.0053	195.90	195.90
1.0053	196.30	196.30
1.0053	196.87	196.87
1.0053	197.44	197.44
1.0053	197.52	197.52
1.0053	197.93	197.93
1.0053	198.46	198.46
1.0053	199.52	199.52
1.0053	200.30	200.30
1.0053	200.87	200.87
1.0053	201.85	201.85
1.0053	202.94	202.94
1.0053	204.00	204.00
1.0053	205.74	205.74
1.0053	208.10	208.10
1.0053	210.60	210.60
1.0053	212.57	212.57
1.0053	213.76	213.76
1.0367	34.100	34.100
1.0367	44.677	44.677
1.0367	51.039	51.039
1.0367	56.203	56.203
1.0367	60.932	60.932
1.0367	65.811	65.811
1.0367	71.286	71.286
1.0367	77.389	77.389
1.0367	84.006	84.006
1.0367	91.028	91.028
1.0367	98.374	98.374
1.0367	105.97	105.97
1.0367	113.70	113.70
1.0367	121.32	121.32
1.0367	127.97	127.97
1.0367	133.56	133.56
1.0367	140.66	140.66
1.0367	148.78	148.78
1.0367	150.70	150.70
1.0367	157.14	157.14
1.0367	165.39	165.39
1.0367	172.59	172.59
1.0367	177.88	177.88
1.0367	179.79	179.79
1.0367	184.92	184.92
1.0367	193.05	193.05
1.0367	198.81	198.81
1.0367	199.32	199.32
1.0367	201.47	201.47
1.0367	201.48	201.48
1.0367	201.51	201.51
1.0367	201.57	201.57
1.0367	201.70	201.70
1.0367	201.93	201.93
1.0367	202.31	202.31
1.0367	202.85	202.85
1.0367	203.52	203.52
1.0367	203.74	203.74
1.0367	204.06	204.06
1.0367	204.34	204.34
1.0367	204.84	204.84
1.0367	205.71	205.71
1.0367	206.98	206.98
1.0367	207.98	207.98
1.0367	209.26	209.26
1.0367	211.24	211.24
1.0367	213.25	213.25
1.0367	214.54	214.54
1.0367	215.86	215.86
1.0367	216.60	216.60
1.0681	34.886	34.886
1.0681	45.699	45.699
1.0681	52.197	52.197
1.0681	57.451	57.451
1.0681	62.213	62.213
1.0681	67.034	67.034
1.0681	72.404	72.404
1.0681	78.407	78.407
1.0681	84.939	84.939
1.0681	91.895	91.895
1.0681	99.191	99.191
1.0681	106.76	106.76
1.0681	114.51	114.51
1.0681	122.27	122.27
1.0681	129.48	129.48
1.0681	135.25	135.25
1.0681	141.70	141.70
1.0681	149.59	149.59
1.0681	149.74	149.74
1.0681	157.92	157.92
1.0681	166.27	166.27
1.0681	174.08	174.08
1.0681	178.81	178.81
1.0681	179.85	179.85
1.0681	186.08	186.08
1.0681	194.33	194.33
1.0681	198.32	198.32
1.0681	201.91	201.91
1.0681	206.53	206.53
1.0681	207.58	207.58
1.0681	207.59	207.59
1.0681	207.61	207.61
1.0681	207.68	207.68
1.0681	207.81	207.81
1.0681	208.05	208.05
1.0681	208.43	208.43
1.0681	208.98	208.98
1.0681	209.71	209.71
1.0681	210.06	210.06
1.0681	210.36	210.36
1.0681	210.69	210.69
1.0681	211.54	211.54
1.0681	212.79	212.79
1.0681	213.88	213.88
1.0681	214.66	214.66
1.0681	214.80	214.80
1.0681	215.59	215.59
1.0681	217.30	217.30
1.0681	219.54	219.54
1.0681	221.94	221.94
1.0996	35.670	35.670
1.0996	46.717	46.717
1.0996	53.349	53.349
1.0996	58.693	58.693
1.0996	63.497	63.497
1.0996	68.274	68.274
1.0996	73.544	73.544
1.0996	79.447	79.447
1.0996	85.893	85.893
1.0996	92.779	92.779
1.0996	100.02	100.02
1.0996	107.55	107.55
1.0996	115.30	115.30
1.0996	123.14	123.14
1.0996	130.72	130.72
1.0996	137.05	137.05
1.0996	142.95	142.95
1.0996	148.78	148.78
1.0996	150.45	150.45
1.0996	158.70	158.70
1.0996	167.09	167.09
1.0996	175.25	175.25
1.0996	177.82	177.82
1.0996	181.90	181.90
1.0996	187.42	187.42
1.0996	195.39	195.39
1.0996	197.31	197.31
1.0996	203.99	203.99
1.0996	209.63	209.63
1.0996	213.69	213.69
1.0996	213.69	213.69
1.0996	213.72	213.72
1.0996	213.72	213.72
1.0996	213.78	213.78
1.0996	213.90	213.90
1.0996	214.12	214.12
1.0996	214.48	214.48
1.0996	214.98	214.98
1.0996	215.60	215.60
1.0996	216.12	216.12
1.0996	216.39	216.39
1.0996	216.65	216.65
1.0996	216.94	216.94
1.0996	217.71	217.71
1.0996	218.92	218.92
1.0996	220.07	220.07
1.0996	221.11	221.11
1.0996	222.89	222.89
1.0996	224.84	224.84
1.0996	226.19	226.19
1.1310	36.451	36.451
1.1310	47.729	47.729
1.1310	54.494	54.494
1.1310	59.930	59.930
1.1310	64.783	64.783
1.1310	69.529	69.529
1.1310	74.705	74.705
1.1310	80.507	80.507
1.1310	86.866	86.866
1.1310	93.680	93.680
1.1310	100.87	100.87
1.1310	108.36	108.36
1.1310	116.09	116.09
1.1310	123.97	123.97
1.1310	131.76	131.76
1.1310	138.72	138.72
1.1310	144.46	144.46
1.1310	147.82	147.82
1.1310	151.41	151.41
1.1310	159.49	159.49
1.1310	167.87	167.87
1.1310	176.22	176.22
1.1310	176.83	176.83
1.1310	183.72	183.72
1.1310	189.11	189.11
1.1310	196.28	196.28
1.1310	196.42	196.42
1.1310	205.32	205.32
1.1310	212.61	212.61
1.1310	212.87	212.87
1.1310	217.85	217.85
1.1310	219.79	219.79
1.1310	219.80	219.80
1.1310	219.82	219.82
1.1310	219.89	219.89
1.1310	220.01	220.01
1.1310	220.23	220.23
1.1310	220.59	220.59
1.1310	221.13	221.13
1.1310	221.86	221.86
1.1310	222.70	222.70
1.1310	222.73	222.73
1.1310	223.13	223.13
1.1310	223.69	223.69
1.1310	224.79	224.79
1.1310	225.94	225.94
1.1310	226.24	226.24
1.1310	226.66	226.66
1.1310	227.46	227.46
1.1310	229.00	229.00
1.1624	37.231	37.231
1.1624	48.738	48.738
1.1624	55.634	55.634
1.1624	61.161	61.161
1.1624	66.070	66.070
1.1624	70.797	70.797
1.1624	75.886	75.886
1.1624	81.589	81.589
1.1624	87.859	87.859
1.1624	94.599	94.599
1.1624	101.73	101.73
1.1624	109.17	109.17
1.1624	116.88	116.88
1.1624	124.77	124.77
1.1624	132.69	132.69
1.1624	140.14	140.14
1.1624	146.19	146.19
1.1624	146.85	146.85
1.1624	152.52	152.52
1.1624	160.32	160.32
1.1624	168.64	168.64
1.1624	175.82	175.82
1.1624	177.08	177.08
1.1624	185.17	185.17
1.1624	191.13	191.13
1.1624	195.24	195.24
1.1624	197.53	197.53
1.1624	206.38	206.38
1.1624	211.49	211.49
1.1624	215.25	215.25
1.1624	220.61	220.61
1.1624	225.04	225.04
1.1624	225.90	225.90
1.1624	225.91	225.91
1.1624	225.93	225.93
1.1624	225.99	225.99
1.1624	226.11	226.11
1.1624	226.32	226.32
1.1624	226.65	226.65
1.1624	227.13	227.13
1.1624	227.68	227.68
1.1624	228.18	228.18
1.1624	228.92	228.92
1.1624	229.09	229.09
1.1624	229.44	229.44
1.1624	229.89	229.89
1.1624	230.94	230.94
1.1624	232.17	232.17
1.1624	233.11	233.11
1.1624	234.63	234.63
1.1938	38.009	38.009
1.1938	49.742	49.742
1.1938	56.767	56.767
1.1938	62.387	62.387
1.1938	67.355	67.355
1.1938	72.076	72.076
1.1938	77.086	77.086
1.1938	82.690	82.690
1.1938	88.872	88.872
1.1938	95.536	95.536
1.1938	102.60	102.60
1.1938	110.00	110.00
1.1938	117.68	117.68
1.1938	125.56	125.56
1.1938	133.54	133.54
1.1938	141.30	141.30
1.1938	145.87	145.87
1.1938	147.94	147.94
1.1938	153.84	153.84
1.1938	161.21	161.21
1.1938	169.42	169.42
1.1938	174.81	174.81
1.1938	177.89	177.89
1.1938	186.31	186.31
1.1938	193.24	193.24
1.1938	194.18	194.18
1.1938	198.86	198.86
1.1938	207.35	207.35
1.1938	210.35	210.35
1.1938	216.76	216.76
1.1938	223.82	223.82
1.1938	223.86	223.86
1.1938	229.62	229.62
1.1938	232.01	232.01
1.1938	232.01	232.01
1.1938	232.04	232.04
1.1938	232.10	232.10
1.1938	232.22	232.22
1.1938	232.43	232.43
1.1938	232.77	232.77
1.1938	233.28	233.28
1.1938	233.99	233.99
1.1938	234.88	234.88
1.1938	235.46	235.46
1.1938	235.70	235.70
1.1938	235.94	235.94
1.1938	235.97	235.97
1.1938	236.87	236.87
1.1938	238.02	238.02
1.1938	238.86	238.86
1.2252	38.785	38.785
1.2252	50.742	50.742
1.2252	57.896	57.896
1.2252	63.607	63.607
1.2252	68.638	68.638
1.2252	73.364	73.364
1.2252	78.304	78.304
1.2252	83.812	83.812
1.2252	89.904	89.904
1.2252	96.491	96.491
1.2252	103.49	103.49
1.2252	110.84	110.84
1.2252	118.48	118.48
1.2252	126.35	126.35
1.2252	134.36	134.36
1.2252	142.30	142.30
1.2252	144.89	144.89
1.2252	149.52	149.52
1.2252	155.43	155.43
1.2252	162.21	162.21
1.2252	170.22	170.22
1.2252	173.80	173.80
1.2252	178.67	178.67
1.2252	187.27	187.27
1.2252	193.11	193.11
1.2252	195.12	195.12
1.2252	200.55	200.55
1.2252	208.33	208.33
1.2252	209.20	209.20
1.2252	217.88	217.88
1.2252	222.59	222.59
1.2252	226.65	226.65
1.2252	231.90	231.90
1.2252	234.61	234.61
1.2252	238.12	238.12
1.2252	238.12	238.12
1.2252	238.14	238.14
1.2252	238.20	238.20
1.2252	238.31	238.31
1.2252	238.52	238.52
1.2252	238.84	238.84
1.2252	239.30	239.30
1.2252	239.88	239.88
1.2252	240.42	240.42
1.2252	241.12	241.12
1.2252	241.84	241.84
1.2252	241.98	241.98
1.2252	242.26	242.26
1.2252	243.08	243.08
1.2252	244.26	244.26
1.2566	39.560	39.560
1.2566	51.739	51.739
1.2566	59.020	59.020
1.2566	64.822	64.822
1.2566	69.918	69.918
1.2566	74.660	74.660
1.2566	79.539	79.539
1.2566	84.953	84.953
1.2566	90.955	90.955
1.2566	97.465	97.465
1.2566	104.40	104.40
1.2566	111.70	111.70
1.2566	119.30	119.30
1.2566	127.14	127.14
1.2566	135.16	135.16
1.2566	143.20	143.20
1.2566	143.91	143.91
1.2566	150.84	150.84
1.2566	157.16	157.16
1.2566	163.38	163.38
1.2566	171.06	171.06
1.2566	172.78	172.78
1.2566	179.44	179.44
1.2566	188.14	188.14
1.2566	192.03	192.03
1.2566	196.61	196.61
1.2566	202.64	202.64
1.2566	208.03	208.03
1.2566	209.39	209.39
1.2566	218.86	218.86
1.2566	221.34	221.34
1.2566	228.52	228.52
1.2566	233.27	233.27
1.2566	234.87	234.87
1.2566	241.93	241.93
1.2566	243.37	243.37
1.2566	244.22	244.22
1.2566	244.23	244.23
1.2566	244.25	244.25
1.2566	244.31	244.31
1.2566	244.42	244.42
1.2566	244.63	244.63
1.2566	244.96	244.96
1.2566	245.44	245.44
1.2566	246.12	246.12
1.2566	247.01	247.01
1.2566	248.01	248.01
1.2566	248.24	248.24
1.2566	248.57	248.57
1.2566	249.07	249.07
1.2881	40.333	40.333
1.2881	52.732	52.732
1.2881	60.138	60.138
1.2881	66.032	66.032
1.2881	71.195	71.195
1.2881	75.961	75.961
1.2881	80.789	80.789
1.2881	86.113	86.113
1.2881	92.025	92.025
1.2881	98.456	98.456
1.2881	105.32	105.32
1.2881	112.56	112.56
1.2881	120.12	120.12
1.2881	127.94	127.94
1.2881	135.95	135.95
1.2881	142.92	142.92
1.2881	144.05	144.05
1.2881	151.94	151.94
1.2881	158.84	158.84
1.2881	164.78	164.78
1.2881	171.75	171.75
1.2881	171.99	171.99
1.2881	180.23	180.23
1.2881	188.95	188.95
1.2881	190.94	190.94
1.2881	197.78	197.78
1.2881	204.87	204.87
1.2881	206.85	206.85
1.2881	210.66	210.66
1.2881	219.79	219.79
1.2881	220.08	220.08
1.2881	229.82	229.82
1.2881	231.92	231.92
1.2881	237.91	237.91
1.2881	241.99	241.99
1.2881	243.78	243.78
1.2881	249.06	249.06
1.2881	250.33	250.33
1.2881	250.34	250.34
1.2881	250.36	250.36
1.2881	250.41	250.41
1.2881	250.52	250.52
1.2881	250.72	250.72
1.2881	251.03	251.03
1.2881	251.48	251.48
1.2881	252.08	252.08
1.2881	252.76	252.76
1.2881	253.43	253.43
1.2881	254.30	254.30
1.2881	254.66	254.66
1.3195	41.106	41.106
1.3195	53.722	53.722
1.3195	61.253	61.253
1.3195	67.237	67.237
1.3195	72.468	72.468
1.3195	77.267	77.267
1.3195	82.055	82.055
1.3195	87.292	87.292
1.3195	93.114	93.114
1.3195	99.465	99.465
1.3195	106.26	106.26
1.3195	113.45	113.45
1.3195	120.96	120.96
1.3195	128.74	128.74
1.3195	136.74	136.74
1.3195	141.93	141.93
1.3195	144.86	144.86
1.3195	152.90	152.90
1.3195	160.31	160.31
1.3195	166.40	166.40
1.3195	170.72	170.72
1.3195	173.04	173.04
1.3195	181.05	181.05
1.3195	189.74	189.74
1.3195	189.84	189.84
1.3195	198.76	198.76
1.3195	205.66	205.66
1.3195	206.90	206.90
1.3195	212.31	212.31
1.3195	218.81	218.81
1.3195	220.73	220.73
1.3195	230.57	230.57
1.3195	230.88	230.88
1.3195	240.35	240.35
1.3195	240.60	240.60
1.3195	246.16	246.16
1.3195	247.77	247.77
1.3195	253.61	253.61
1.3195	254.75	254.75
1.3195	256.44	256.44
1.3195	256.45	256.45
1.3195	256.47	256.47
1.3195	256.52	256.52
1.3195	256.63	256.63
1.3195	256.83	256.83
1.3195	257.15	257.15
1.3195	257.61	257.61
1.3195	258.26	258.26
1.3195	259.13	259.13
1.3195	260.16	260.16
1.3509	41.877	41.877
1.3509	54.709	54.709
1.3509	62.362	62.362
1.3509	68.438	68.438
1.3509	73.738	73.738
1.3509	78.574	78.574
1.3509	83.333	83.333
1.3509	88.489	88.489
1.3509	94.222	94.222
1.3509	100.49	100.49
1.3509	107.22	107.22
1.3509	114.34	114.34
1.3509	121.80	121.80
1.3509	129.55	129.55
1.3509	137.53	137.53
1.3509	140.94	140.94
1.3509	145.65	145.65
1.3509	153.77	153.77
1.3509	161.53	161.53
1.3509	168.11	168.11
1.3509	169.68	169.68
1.3509	174.28	174.28
1.3509	181.92	181.92
1.3509	188.74	188.74
1.3509	190.53	190.53
1.3509	199.65	199.65
1.3509	204.46	204.46
1.3509	208.52	208.52
1.3509	214.41	214.41
1.3509	217.53	217.53
1.3509	221.73	221.73
1.3509	229.20	229.20
1.3509	231.82	231.82
1.3509	239.20	239.20
1.3509	242.04	242.04
1.3509	246.46	246.46
1.3509	249.01	249.01
1.3509	252.23	252.23
1.3509	256.43	256.43
1.3509	260.10	260.10
1.3509	262.55	262.55
1.3509	262.56	262.56
1.3509	262.58	262.58
1.3509	262.63	262.63
1.3509	262.74	262.74
1.3509	262.92	262.92
1.3509	263.22	263.22
1.3509	263.66	263.66
1.3509	264.24	264.24
1.3509	264.98	264.98
1.3823	42.648	42.648
1.3823	55.693	55.693
1.3823	63.468	63.468
1.3823	69.634	69.634
1.3823	75.003	75.003
1.3823	79.883	79.883
1.3823	84.624	84.624
1.3823	89.703	89.703
1.3823	95.348	95.348
1.3823	101.54	101.54
1.3823	108.19	108.19
1.3823	115.25	115.25
1.3823	122.66	122.66
1.3823	130.37	130.37
1.3823	138.32	138.32
1.3823	139.95	139.95
1.3823	146.43	146.43
1.3823	154.60	154.60
1.3823	162.57	162.57
1.3823	168.64	168.64
1.3823	169.70	169.70
1.3823	175.75	175.75
1.3823	182.89	182.89
1.3823	187.62	187.62
1.3823	191.35	191.35
1.3823	200.48	200.48
1.3823	203.24	203.24
1.3823	209.76	209.76
1.3823	216.23	216.23
1.3823	216.77	216.77
1.3823	222.91	222.91
1.3823	227.83	227.83
1.3823	232.73	232.73
1.3823	237.79	237.79
1.3823	243.30	243.30
1.3823	245.14	245.14
1.3823	250.84	250.84
1.3823	251.82	251.82
1.3823	258.24	258.24
1.3823	258.59	258.59
1.3823	266.71	266.71
1.3823	267.85	267.85
1.3823	268.66	268.66
1.3823	268.67	268.67
1.3823	268.69	268.69
1.3823	268.74	268.74
1.3823	268.85	268.85
1.3823	269.04	269.04
1.3823	269.36	269.36
1.3823	269.81	269.81
1.4137	43.417	43.417
1.4137	56.674	56.674
1.4137	64.570	64.570
1.4137	70.825	70.825
1.4137	76.264	76.264
1.4137	81.192	81.192
1.4137	85.924	85.924
1.4137	90.934	90.934
1.4137	96.492	96.492
1.4137	102.60	102.60
1.4137	109.18	109.18
1.4137	116.18	116.18
1.4137	123.54	123.54
1.4137	131.20	131.20
1.4137	138.96	138.96
1.4137	139.11	139.11
1.4137	147.21	147.21
1.4137	155.40	155.40
1.4137	163.49	163.49
1.4137	167.59	167.59
1.4137	171.06	171.06
1.4137	177.40	177.40
1.4137	184.01	184.01
1.4137	186.49	186.49
1.4137	192.20	192.20
1.4137	201.29	201.29
1.4137	202.03	202.03
1.4137	210.78	210.78
1.4137	214.93	214.93
1.4137	219.02	219.02
1.4137	224.43	224.43
1.4137	226.45	226.45
1.4137	233.64	233.64
1.4137	236.37	236.37
1.4137	243.81	243.81
1.4137	244.35	244.35
1.4137	249.46	249.46
1.4137	254.15	254.15
1.4137	257.08	257.08
1.4137	260.44	260.44
1.4137	265.12	265.12
1.4137	269.76	269.76
1.4137	272.88	272.88
1.4137	274.77	274.77
1.4137	274.77	274.77
1.4137	274.79	274.79
1.4137	274.85	274.85
1.4137	274.95	274.95
1.4137	275.13	275.13
1.4137	275.42	275.42
1.4451	44.187	44.187
1.4451	57.653	57.653
1.4451	65.668	65.668
1.4451	72.013	72.013
1.4451	77.521	77.521
1.4451	82.500	82.500
1.4451	87.234	87.234
1.4451	92.181	92.181
1.4451	97.654	97.654
1.4451	103.68	103.68
1.4451	110.19	110.19
1.4451	117.12	117.12
1.4451	124.42	124.42
1.4451	132.04	132.04
1.4451	137.96	137.96
1.4451	139.92	139.92
1.4451	147.99	147.99
1.4451	156.18	156.18
1.4451	164.34	164.34
1.4451	166.54	166.54
1.4451	172.20	172.20
1.4451	179.06	179.06
1.4451	185.33	185.33
1.4451	185.36	185.36
1.4451	193.11	193.11
1.4451	200.80	200.80
1.4451	202.11	202.11
1.4451	211.69	211.69
1.4451	213.63	213.63
1.4451	220.85	220.85
1.4451	225.06	225.06
1.4451	226.46	226.46
1.4451	234.59	234.59
1.4451	234.95	234.95
1.4451	242.46	242.46
1.4451	245.30	245.30
1.4451	248.09	248.09
1.4451	255.56	255.56
1.4451	255.90	255.90
1.4451	263.01	263.01
1.4451	263.53	263.53
1.4451	271.24	271.24
1.4451	271.37	271.37
1.4451	278.60	278.60
1.4451	280.67	280.67
1.4451	280.88	280.88
1.4451	280.89	280.89
1.4451	280.91	280.91
1.4451	280.96	280.96
1.4451	281.08	281.08
1.4765	44.955	44.955
1.4765	58.629	58.629
1.4765	66.763	66.763
1.4765	73.196	73.196
1.4765	78.775	78.775
1.4765	83.807	83.807
1.4765	88.550	88.550
1.4765	93.443	93.443
1.4765	98.833	98.833
1.4765	104.78	104.78
1.4765	111.21	111.21
1.4765	118.08	118.08
1.4765	125.32	125.32
1.4765	132.89	132.89
1.4765	136.97	136.97
1.4765	140.73	140.73
1.4765	148.78	148.78
1.4765	156.95	156.95
1.4765	165.15	165.15
1.4765	165.48	165.48
1.4765	173.19	173.19
1.4765	180.56	180.56
1.4765	184.23	184.23
1.4765	186.87	186.87
1.4765	194.14	194.14
1.4765	199.57	199.57
1.4765	202.95	202.95
1.4765	212.32	212.32
1.4765	212.55	212.55
1.4765	222.22	222.22
1.4765	223.67	223.67
1.4765	228.89	228.89
1.4765	233.52	233.52
1.4765	235.66	235.66
1.4765	241.11	241.11
1.4765	246.20	246.20
1.4765	246.71	246.71
1.4765	254.05	254.05
1.4765	257.23	257.23
1.4765	261.94	261.94
1.4765	265.65	265.65
1.4765	269.59	269.59
1.4765	273.00	273.00
1.4765	276.91	276.91
1.4765	282.84	282.84
1.4765	283.40	283.40
1.4765	283.91	283.91
1.4765	286.99	286.99
1.4765	287.00	287.00
1.4765	287.02	287.02
1.5080	45.724	45.724
1.5080	59.603	59.603
1.5080	67.855	67.855
1.5080	74.376	74.376
1.5080	80.024	80.024
1.5080	85.112	85.112
1.5080	89.873	89.873
1.5080	94.720	94.720
1.5080	100.03	100.03
1.5080	105.89	105.89
1.5080	112.26	112.26
1.5080	119.06	119.06
1.5080	126.24	126.24
1.5080	133.75	133.75
1.5080	135.97	135.97
1.5080	141.55	141.55
1.5080	149.56	149.56
1.5080	157.72	157.72
1.5080	164.43	164.43
1.5080	165.93	165.93
1.5080	174.07	174.07
1.5080	181.85	181.85
1.5080	183.08	183.08
1.5080	188.54	188.54
1.5080	195.33	195.33
1.5080	198.33	198.33
1.5080	203.83	203.83
1.5080	211.00	211.00
1.5080	213.38	213.38
1.5080	222.28	222.28
1.5080	223.31	223.31
1.5080	231.38	231.38
1.5080	232.09	232.09
1.5080	237.00	237.00
1.5080	239.74	239.74
1.5080	245.33	245.33
1.5080	247.09	247.09
1.5080	252.53	252.53
1.5080	258.34	258.34
1.5080	260.35	260.35
1.5080	267.94	267.94
1.5080	268.05	268.05
1.5080	274.86	274.86
1.5080	275.21	275.21
1.5080	282.17	282.17
1.5080	284.32	284.32
1.5080	285.28	285.28
1.5080	288.87	288.87
1.5080	292.97	292.97
1.5080	293.10	293.10
1.5394	46.492	46.492
1.5394	60.575	60.575
1.5394	68.943	68.943
1.5394	75.553	75.553
1.5394	81.270	81.270
1.5394	86.414	86.414
1.5394	91.200	91.200
1.5394	96.009	96.009
1.5394	101.24	101.24
1.5394	107.02	107.02
1.5394	113.31	113.31
1.5394	120.05	120.05
1.5394	127.17	127.17
1.5394	134.63	134.63
1.5394	134.98	134.98
1.5394	142.38	142.38
1.5394	150.36	150.36
1.5394	158.49	158.49
1.5394	163.37	163.37
1.5394	166.69	166.69
1.5394	174.90	174.90
1.5394	181.93	181.93
1.5394	182.94	182.94
1.5394	190.17	190.17
1.5394	196.72	196.72
1.5394	197.08	197.08
1.5394	204.79	204.79
1.5394	209.67	209.67
1.5394	214.22	214.22
1.5394	220.88	220.88
1.5394	224.26	224.26
1.5394	230.65	230.65
1.5394	233.52	233.52
1.5394	238.36	238.36
1.5394	238.83	238.83
1.5394	243.96	243.96
1.5394	248.00	248.00
1.5394	251.02	251.02
1.5394	258.76	258.76
1.5394	259.32	259.32
1.5394	266.29	266.29
1.5394	270.02	270.02
1.5394	273.52	273.52
1.5394	277.03	277.03
1.5394	280.43	280.43
1.5394	285.82	285.82
1.5394	286.82	286.82
1.5394	287.09	287.09
1.5394	293.56	293.56
1.5394	296.56	296.56
1.5708	47.260	47.260
1.5708	61.545	61.545
1.5708	70.028	70.028
1.5708	76.726	76.726
1.5708	82.513	82.513
1.5708	87.714	87.714
1.5708	92.530	92.530
1.5708	97.311	97.311
1.5708	102.47	102.47
1.5708	108.17	108.17
1.5708	114.39	114.39
1.5708	121.05	121.05
1.5708	128.11	128.11
1.5708	133.98	133.98
1.5708	135.52	135.52
1.5708	143.22	143.22
1.5708	151.16	151.16
1.5708	159.26	159.26
1.5708	162.30	162.30
1.5708	167.45	167.45
1.5708	175.68	175.68
1.5708	180.78	180.78
1.5708	183.89	183.89
1.5708	191.64	191.64
1.5708	195.83	195.83
1.5708	198.31	198.31
1.5708	205.85	205.85
1.5708	208.35	208.35
1.5708	215.08	215.08
1.5708	219.48	219.48
1.5708	225.14	225.14
1.5708	229.21	229.21
1.5708	235.12	235.12
1.5708	236.98	236.98
1.5708	241.22	241.22
1.5708	242.59	242.59
1.5708	248.98	248.98
1.5708	249.51	249.51
1.5708	257.17	257.17
1.5708	260.24	260.24
1.5708	264.64	264.64
1.5708	271.57	271.57
1.5708	271.82	271.82
1.5708	278.69	278.69
1.5708	279.46	279.46
1.5708	285.30	285.30
1.5708	287.34	287.34
1.5708	288.26	288.26
1.5708	291.74	291.74
1.5708	298.08	298.08
1.6022	48.028	48.028
1.6022	62.514	62.514
1.6022	71.111	71.111
1.6022	77.896	77.896
1.6022	83.752	83.752
1.6022	89.011	89.011
1.6022	93.862	93.862
1.6022	98.624	98.624
1.6022	103.72	103.72
1.6022	109.34	109.34
1.6022	115.48	115.48
1.6022	122.07	122.07
1.6022	129.07	129.07
1.6022	132.99	132.99
1.6022	136.42	136.42
1.6022	144.08	144.08
1.6022	151.97	151.97
1.6022	160.03	160.03
1.6022	161.24	161.24
1.6022	168.20	168.20
1.6022	176.45	176.45
1.6022	179.63	179.63
1.6022	184.76	184.76
1.6022	192.89	192.89
1.6022	194.58	194.58
1.6022	200.00	200.00
1.6022	207.02	207.02
1.6022	207.08	207.08
1.6022	215.98	215.98
1.6022	218.08	218.08
1.6022	225.99	225.99
1.6022	227.76	227.76
1.6022	235.58	235.58
1.6022	236.32	236.32
1.6022	241.22	241.22
1.6022	243.88	243.88
1.6022	248.00	248.00
1.6022	250.13	250.13
1.6022	255.57	255.57
1.6022	261.13	261.13
1.6022	262.99	262.99
1.6022	270.12	270.12
1.6022	272.82	272.82
1.6022	276.94	276.94
1.6022	281.91	281.91
1.6022	283.52	283.52
1.6022	288.87	288.87
1.6022	289.76	289.76
1.6022	289.92	289.92
1.6022	296.23	296.23
1.6336	48.796	48.796
1.6336	63.480	63.480
1.6336	72.191	72.191
1.6336	79.063	79.063
1.6336	84.988	84.988
1.6336	90.305	90.305
1.6336	95.195	95.195
1.6336	99.946	99.946
1.6336	104.98	104.98
1.6336	110.52	110.52
1.6336	116.58	116.58
1.6336	123.11	123.11
1.6336	130.05	130.05
1.6336	132.00	132.00
1.6336	137.34	137.34
1.6336	144.94	144.94
1.6336	152.79	152.79
1.6336	160.17	160.17
1.6336	160.81	160.81
1.6336	168.96	168.96
1.6336	177.20	177.20
1.6336	178.47	178.47
1.6336	185.58	185.58
1.6336	193.33	193.33
1.6336	193.97	193.97
1.6336	201.63	201.63
1.6336	205.69	205.69
1.6336	208.51	208.51
1.6336	216.68	216.68
1.6336	216.95	216.95
1.6336	226.32	226.32
1.6336	226.84	226.84
1.6336	234.17	234.17
1.6336	237.32	237.32
1.6336	239.85	239.85
1.6336	246.40	246.40
1.6336	246.49	246.49
1.6336	251.66	251.66
1.6336	253.98	253.98
1.6336	261.34	261.34
1.6336	262.01	262.01
1.6336	268.42	268.42
1.6336	273.89	273.89
1.6336	275.20	275.20
1.6336	281.73	281.73
1.6336	284.18	284.18
1.6336	288.09	288.09
1.6336	290.41	290.41
1.6336	291.46	291.46
1.6336	294.38	294.38
1.6650	49.565	49.565
1.6650	64.445	64.445
1.6650	73.269	73.269
1.6650	80.227	80.227
1.6650	86.221	86.221
1.6650	91.596	91.596
1.6650	96.529	96.529
1.6650	101.28	101.28
1.6650	106.25	106.25
1.6650	111.72	111.72
1.6650	117.70	117.70
1.6650	124.16	124.16
1.6650	131.00	131.00
1.6650	131.04	131.04
1.6650	138.27	138.27
1.6650	145.82	145.82
1.6650	153.62	153.62
1.6650	159.10	159.10
1.6650	161.60	161.60
1.6650	169.71	169.71
1.6650	177.30	177.30
1.6650	177.95	177.95
1.6650	186.37	186.37
1.6650	192.07	192.07
1.6650	194.92	194.92
1.6650	203.09	203.09
1.6650	204.35	204.35
1.6650	210.13	210.13
1.6650	215.27	215.27
1.6650	218.04	218.04
1.6650	224.87	224.87
1.6650	227.71	227.71
1.6650	232.76	232.76
1.6650	238.23	238.23
1.6650	238.49	238.49
1.6650	244.99	244.99
1.6650	248.37	248.37
1.6650	252.39	252.39
1.6650	253.81	253.81
1.6650	259.69	259.69
1.6650	262.93	262.93
1.6650	266.72	266.72
1.6650	273.45	273.45
1.6650	274.87	274.87
1.6650	279.95	279.95
1.6650	286.12	286.12
1.6650	286.27	286.27
1.6650	291.97	291.97
1.6650	292.53	292.53
1.6650	293.47	293.47
1.6965	50.333	50.333
1.6965	65.409	65.409
1.6965	74.345	74.345
1.6965	81.389	81.389
1.6965	87.451	87.451
1.6965	92.885	92.885
1.6965	97.862	97.862
1.6965	102.62	102.62
1.6965	107.54	107.54
1.6965	112.93	112.93
1.6965	118.84	118.84
1.6965	125.23	125.23
1.6965	130.01	130.01
1.6965	132.04	132.04
1.6965	139.22	139.22
1.6965	146.71	146.71
1.6965	154.46	154.46
1.6965	158.03	158.03
1.6965	162.40	162.40
1.6965	170.47	170.47
1.6965	176.14	176.14
1.6965	178.69	178.69
1.6965	187.13	187.13
1.6965	190.81	190.81
1.6965	195.80	195.80
1.6965	203.01	203.01
1.6965	204.35	204.35
1.6965	211.82	211.82
1.6965	213.87	213.87
1.6965	219.28	219.28
1.6965	223.42	223.42
1.6965	228.62	228.62
1.6965	231.34	231.34
1.6965	237.12	237.12
1.6965	239.10	239.10
1.6965	243.49	243.49
1.6965	249.79	249.79
1.6965	250.80	250.80
1.6965	256.50	256.50
1.6965	258.04	258.04
1.6965	263.94	263.94
1.6965	265.02	265.02
1.6965	271.71	271.71
1.6965	275.78	275.78
1.6965	278.16	278.16
1.6965	284.45	284.45
1.6965	287.70	287.70
1.6965	290.68	290.68
1.6965	293.54	293.54
1.6965	295.74	295.74
1.7279	51.102	51.102
1.7279	66.372	66.372
1.7279	75.418	75.418
1.7279	82.548	82.548
1.7279	88.679	88.679
1.7279	94.171	94.171
1.7279	99.195	99.195
1.7279	103.96	103.96
1.7279	108.84	108.84
1.7279	114.16	114.16
1.7279	120.00	120.00
1.7279	126.32	126.32
1.7279	129.02	129.02
1.7279	133.06	133.06
1.7279	140.17	140.17
1.7279	147.61	147.61
1.7279	155.31	155.31
1.7279	156.96	156.96
1.7279	163.20	163.20
1.7279	171.24	171.24
1.7279	174.97	174.97
1.7279	179.44	179.44
1.7279	187.89	187.89
1.7279	189.54	189.54
1.7279	196.63	196.63
1.7279	201.68	201.68
1.7279	205.44	205.44
1.7279	212.46	212.46
1.7279	213.47	213.47
1.7279	220.71	220.71
1.7279	221.96	221.96
1.7279	229.60	229.60
1.7279	229.91	229.91
1.7279	235.75	235.75
1.7279	239.96	239.96
1.7279	242.00	242.00
1.7279	249.22	249.22
1.7279	250.89	250.89
1.7279	256.40	256.40
1.7279	259.32	259.32
1.7279	263.32	263.32
1.7279	265.17	265.17
1.7279	269.97	269.97
1.7279	276.38	276.38
1.7279	276.67	276.67
1.7279	282.64	282.64
1.7279	288.83	288.83
1.7279	288.99	288.99
1.7279	295.04	295.04
1.7279	295.12	295.12
1.7593	51.872	51.872
1.7593	67.333	67.333
1.7593	76.490	76.490
1.7593	83.705	83.705
1.7593	89.904	89.904
1.7593	95.454	95.454
1.7593	100.53	100.53
1.7593	105.31	105.31
1.7593	110.15	110.15
1.7593	115.41	115.41
1.7593	121.17	121.17
1.7593	127.42	127.42
1.7593	128.03	128.03
1.7593	134.09	134.09
1.7593	141.15	141.15
1.7593	148.53	148.53
1.7593	155.89	155.89
1.7593	156.17	156.17
1.7593	164.01	164.01
1.7593	172.01	172.01
1.7593	173.80	173.80
1.7593	180.19	180.19
1.7593	188.28	188.28
1.7593	188.64	188.64
1.7593	197.43	197.43
1.7593	200.34	200.34
1.7593	206.42	206.42
1.7593	211.05	211.05
1.7593	214.96	214.96
1.7593	220.51	220.51
1.7593	222.31	222.31
1.7593	228.47	228.47
1.7593	230.67	230.67
1.7593	234.38	234.38
1.7593	240.51	240.51
1.7593	240.84	240.84
1.7593	247.63	247.63
1.7593	251.84	251.84
1.7593	254.75	254.75
1.7593	261.62	261.62
1.7593	261.81	261.81
1.7593	266.88	266.88
1.7593	268.23	268.23
1.7593	274.60	274.60
1.7593	277.56	277.56
1.7593	280.82	280.82
1.7593	286.98	286.98
1.7593	290.10	290.10
1.7593	293.17	293.17
1.7593	296.71	296.71
1.7907	52.642	52.642
1.7907	68.293	68.293
1.7907	77.559	77.559
1.7907	84.859	84.859
1.7907	91.126	91.126
1.7907	96.735	96.735
1.7907	101.86	101.86
1.7907	106.66	106.66
1.7907	111.48	111.48
1.7907	116.67	116.67
1.7907	122.36	122.36
1.7907	127.05	127.05
1.7907	128.53	128.53
1.7907	135.14	135.14
1.7907	142.13	142.13
1.7907	149.45	149.45
1.7907	154.81	154.81
1.7907	157.04	157.04
1.7907	164.83	164.83
1.7907	172.63	172.63
1.7907	172.79	172.79
1.7907	180.94	180.94
1.7907	187.01	187.01
1.7907	189.39	189.39
1.7907	198.21	198.21
1.7907	199.00	199.00
1.7907	207.32	207.32
1.7907	209.64	209.64
1.7907	216.26	216.26
1.7907	219.06	219.06
1.7907	224.02	224.02
1.7907	227.03	227.03
1.7907	231.90	231.90
1.7907	233.01	233.01
1.7907	239.03	239.03
1.7907	241.74	241.74
1.7907	246.05	246.05
1.7907	252.73	252.73
1.7907	253.11	253.11
1.7907	259.93	259.93
1.7907	263.65	263.65
1.7907	266.49	266.49
1.7907	269.31	269.31
1.7907	272.82	272.82
1.7907	278.48	278.48
1.7907	279.01	279.01
1.7907	285.14	285.14
1.7907	291.10	291.10
1.7907	291.31	291.31
1.7907	297.56	297.56
1.8221	53.412	53.412
1.8221	69.253	69.253
1.8221	78.627	78.627
1.8221	86.012	86.012
1.8221	92.347	92.347
1.8221	98.014	98.014
1.8221	103.19	103.19
1.8221	108.02	108.02
1.8221	112.81	112.81
1.8221	117.94	117.94
1.8221	123.56	123.56
1.8221	126.06	126.06
1.8221	129.66	129.66
1.8221	136.21	136.21
1.8221	143.13	143.13
1.8221	150.39	150.39
1.8221	153.74	153.74
1.8221	157.93	157.93
1.8221	165.66	165.66
1.8221	171.45	171.45
1.8221	173.58	173.58
1.8221	181.70	181.70
1.8221	185.75	185.75
1.8221	190.13	190.13
1.8221	197.66	197.66
1.8221	198.98	198.98
1.8221	208.17	208.17
1.8221	208.24	208.24
1.8221	217.39	217.39
1.8221	217.60	217.60
1.8221	225.59	225.59
1.8221	225.69	225.69
1.8221	231.64	231.64
1.8221	233.29	233.29
1.8221	237.56	237.56
1.8221	242.71	242.71
1.8221	244.48	244.48
1.8221	251.47	251.47
1.8221	253.60	253.60
1.8221	258.24	258.24
1.8221	264.75	264.75
1.8221	264.94	264.94
1.8221	271.04	271.04
1.8221	272.22	272.22
1.8221	277.19	277.19
1.8221	279.50	279.50
1.8221	283.30	283.30
1.8221	289.44	289.44
1.8221	292.03	292.03
1.8221	295.68	295.68
1.8535	54.184	54.184
1.8535	70.211	70.211
1.8535	79.694	79.694
1.8535	87.163	87.163
1.8535	93.565	93.565
1.8535	99.290	99.290
1.8535	104.51	104.51
1.8535	109.38	109.38
1.8535	114.16	114.16
1.8535	119.23	119.23
1.8535	124.77	124.77
1.8535	125.08	125.08
1.8535	130.81	130.81
1.8535	137.28	137.28
1.8535	144.15	144.15
1.8535	151.35	151.35
1.8535	152.67	152.67
1.8535	158.82	158.82
1.8535	166.51	166.51
1.8535	170.28	170.28
1.8535	174.37	174.37
1.8535	182.46	182.46
1.8535	184.48	184.48
1.8535	190.89	190.89
1.8535	196.32	196.32
1.8535	199.74	199.74
1.8535	206.83	206.83
1.8535	208.99	208.99
1.8535	216.15	216.15
1.8535	218.40	218.40
1.8535	224.14	224.14
1.8535	227.23	227.23
1.8535	230.26	230.26
1.8535	234.87	234.87
1.8535	236.09	236.09
1.8535	242.91	242.91
1.8535	243.77	243.77
1.8535	249.83	249.83
1.8535	254.48	254.48
1.8535	256.55	256.55
1.8535	263.02	263.02
1.8535	265.98	265.98
1.8535	269.27	269.27
1.8535	275.17	275.17
1.8535	275.39	275.39
1.8535	280.78	280.78
1.8535	281.46	281.46
1.8535	287.58	287.58
1.8535	292.92	292.92
1.8535	293.80	293.80
1.8850	54.956	54.956
1.8850	71.169	71.169
1.8850	80.759	80.759
1.8850	88.312	88.312
1.8850	94.782	94.782
1.8850	100.57	100.57
1.8850	105.84	105.84
1.8850	110.74	110.74
1.8850	115.51	115.51
1.8850	120.53	120.53
1.8850	124.10	124.10
1.8850	126.01	126.01
1.8850	131.97	131.97
1.8850	138.38	138.38
1.8850	145.18	145.18
1.8850	151.59	151.59
1.8850	152.32	152.32
1.8850	159.73	159.73
1.8850	167.36	167.36
1.8850	169.11	169.11
1.8850	175.18	175.18
1.8850	183.21	183.21
1.8850	183.23	183.23
1.8850	191.64	191.64
1.8850	194.98	194.98
1.8850	200.50	200.50
1.8850	205.43	205.43
1.8850	209.78	209.78
1.8850	214.70	214.70
1.8850	219.33	219.33
1.8850	222.68	222.68
1.8850	228.59	228.59
1.8850	228.88	228.88
1.8850	234.64	234.64
1.8850	236.56	236.56
1.8850	241.34	241.34
1.8850	244.95	244.95
1.8850	248.20	248.20
1.8850	254.86	254.86
1.8850	255.38	255.38
1.8850	261.29	261.29
1.8850	266.91	266.91
1.8850	267.50	267.50
1.8850	273.58	273.58
1.8850	277.68	277.68
1.8850	279.63	279.63
1.8850	282.63	282.63
1.8850	285.73	285.73
1.8850	291.93	291.93
1.8850	293.82	293.82
1.9164	55.729	55.729
1.9164	72.127	72.127
1.9164	81.823	81.823
1.9164	89.459	89.459
1.9164	95.997	95.997
1.9164	101.84	101.84
1.9164	107.16	107.16
1.9164	112.10	112.10
1.9164	116.87	116.87
1.9164	121.84	121.84
1.9164	123.12	123.12
1.9164	127.25	127.25
1.9164	133.15	133.15
1.9164	139.49	139.49
1.9164	146.22	146.22
1.9164	150.52	150.52
1.9164	153.30	153.30
1.9164	160.65	160.65
1.9164	167.93	167.93
1.9164	168.22	168.22
1.9164	175.99	175.99
1.9164	181.95	181.95
1.9164	184.01	184.01
1.9164	192.41	192.41
1.9164	193.64	193.64
1.9164	201.26	201.26
1.9164	204.02	204.02
1.9164	210.57	210.57
1.9164	213.25	213.25
1.9164	220.20	220.20
1.9164	221.23	221.23
1.9164	227.49	227.49
1.9164	229.78	229.78
1.9164	233.18	233.18
1.9164	238.27	238.27
1.9164	239.78	239.78
1.9164	246.29	246.29
1.9164	246.57	246.57
1.9164	253.18	253.18
1.9164	256.33	256.33
1.9164	259.56	259.56
1.9164	265.73	265.73
1.9164	267.80	267.80
1.9164	271.78	271.78
1.9164	277.80	277.80
1.9164	279.44	279.44
1.9164	283.88	283.88
1.9164	285.25	285.25
1.9164	290.07	290.07
1.9164	294.74	294.74
1.9478	56.503	56.503
1.9478	73.084	73.084
1.9478	82.886	82.886
1.9478	90.605	90.605
1.9478	97.210	97.210
1.9478	103.11	103.11
1.9478	108.48	108.48
1.9478	113.46	113.46
1.9478	118.24	118.24
1.9478	122.14	122.14
1.9478	123.17	123.17
1.9478	128.52	128.52
1.9478	134.34	134.34
1.9478	140.61	140.61
1.9478	147.28	147.28
1.9478	149.44	149.44
1.9478	154.29	154.29
1.9478	161.58	161.58
1.9478	166.76	166.76
1.9478	169.10	169.10
1.9478	176.82	176.82
1.9478	180.68	180.68
1.9478	184.80	184.80
1.9478	192.30	192.30
1.9478	193.18	193.18
1.9478	202.03	202.03
1.9478	202.62	202.62
1.9478	211.34	211.34
1.9478	211.79	211.79
1.9478	219.77	219.77
1.9478	221.04	221.04
1.9478	226.10	226.10
1.9478	230.84	230.84
1.9478	231.74	231.74
1.9478	238.23	238.23
1.9478	239.88	239.88
1.9478	244.94	244.94
1.9478	247.81	247.81
1.9478	251.50	251.50
1.9478	257.35	257.35
1.9478	257.84	257.84
1.9478	263.97	263.97
1.9478	268.68	268.68
1.9478	269.98	269.98
1.9478	275.98	275.98
1.9478	280.68	280.68
1.9478	282.04	282.04
1.9478	288.21	288.21
1.9478	288.34	288.34
1.9478	294.53	294.53
1.9792	57.278	57.278
1.9792	74.040	74.040
1.9792	83.948	83.948
1.9792	91.750	91.750
1.9792	98.421	98.421
1.9792	104.38	104.38
1.9792	109.80	109.80
1.9792	114.82	114.82
1.9792	119.61	119.61
1.9792	121.17	121.17
1.9792	124.51	124.51
1.9792	129.79	129.79
1.9792	135.55	135.55
1.9792	141.75	141.75
1.9792	148.36	148.36
1.9792	148.37	148.37
1.9792	155.30	155.30
1.9792	162.53	162.53
1.9792	165.59	165.59
1.9792	169.99	169.99
1.9792	177.65	177.65
1.9792	179.42	179.42
1.9792	185.60	185.60
1.9792	190.96	190.96
1.9792	193.95	193.95
1.9792	201.22	201.22
1.9792	202.79	202.79
1.9792	210.34	210.34
1.9792	212.12	212.12
1.9792	218.31	218.31
1.9792	221.86	221.86
1.9792	224.70	224.70
1.9792	230.30	230.30
1.9792	231.80	231.80
1.9792	236.68	236.68
1.9792	241.32	241.32
1.9792	243.32	243.32
1.9792	249.48	249.48
1.9792	249.83	249.83
1.9792	256.12	256.12
1.9792	258.48	258.48
1.9792	262.21	262.21
1.9792	268.19	268.19
1.9792	269.57	269.57
1.9792	274.16	274.16
1.9792	280.20	280.20
1.9792	281.69	281.69
1.9792	286.36	286.36
1.9792	291.44	291.44
1.9792	292.67	292.67
2.0106	58.054	58.054
2.0106	74.996	74.996
2.0106	85.008	85.008
2.0106	92.893	92.893
2.0106	99.632	99.632
2.0106	105.65	105.65
2.0106	111.12	111.12
2.0106	116.18	116.18
2.0106	120.19	120.19
2.0106	120.99	120.99
2.0106	125.86	125.86
2.0106	131.08	131.08
2.0106	136.77	136.77
2.0106	142.91	142.91
2.0106	147.30	147.30
2.0106	149.44	149.44
2.0106	156.33	156.33
2.0106	163.49	163.49
2.0106	164.41	164.41
2.0106	170.88	170.88
2.0106	178.15	178.15
2.0106	178.50	178.50
2.0106	186.41	186.41
2.0106	189.63	189.63
2.0106	194.74	194.74
2.0106	199.82	199.82
2.0106	203.57	203.57
2.0106	208.90	208.90
2.0106	212.89	212.89
2.0106	216.85	216.85
2.0106	222.66	222.66
2.0106	223.30	223.30
2.0106	228.87	228.87
2.0106	232.71	232.71
2.0106	235.14	235.14
2.0106	241.71	241.71
2.0106	242.59	242.59
2.0106	248.16	248.16
2.0106	251.20	251.20
2.0106	254.40	254.40
2.0106	259.75	259.75
2.0106	260.45	260.45
2.0106	266.40	266.40
2.0106	270.50	270.50
2.0106	272.35	272.35
2.0106	278.36	278.36
2.0106	282.62	282.62
2.0106	284.51	284.51
2.0106	290.82	290.82
2.0106	294.05	294.05
2.0420	58.832	58.832
2.0420	75.952	75.952
2.0420	86.069	86.069
2.0420	94.036	94.036
2.0420	100.84	100.84
2.0420	106.91	106.91
2.0420	112.44	112.44
2.0420	117.54	117.54
2.0420	119.23	119.23
2.0420	122.37	122.37
2.0420	127.22	127.22
2.0420	132.38	132.38
2.0420	138.01	138.01
2.0420	144.08	144.08
2.0420	146.23	146.23
2.0420	150.55	150.55
2.0420	157.36	157.36
2.0420	163.24	163.24
2.0420	164.46	164.46
2.0420	171.79	171.79
2.0420	176.89	176.89
2.0420	179.36	179.36
2.0420	187.23	187.23
2.0420	188.29	188.29
2.0420	195.54	195.54
2.0420	198.42	198.42
2.0420	204.35	204.35
2.0420	207.45	207.45
2.0420	213.67	213.67
2.0420	215.39	215.39
2.0420	221.89	221.89
2.0420	223.45	223.45
2.0420	227.44	227.44
2.0420	233.57	233.57
2.0420	233.60	233.60
2.0420	240.10	240.10
2.0420	243.71	243.71
2.0420	246.49	246.49
2.0420	252.69	252.69
2.0420	252.87	252.87
2.0420	258.70	258.70
2.0420	261.19	261.19
2.0420	264.62	264.62
2.0420	270.54	270.54
2.0420	271.49	271.49
2.0420	276.54	276.54
2.0420	282.67	282.67
2.0420	283.51	283.51
2.0420	288.98	288.98
2.0420	295.49	295.49
2.0735	59.610	59.610
2.0735	76.908	76.908
2.0735	87.128	87.128
2.0735	95.177	95.177
2.0735	102.05	102.05
2.0735	108.18	108.18
2.0735	113.76	113.76
2.0735	118.26	118.26
2.0735	118.91	118.91
2.0735	123.76	123.76
2.0735	128.58	128.58
2.0735	133.70	133.70
2.0735	139.26	139.26
2.0735	145.16	145.16
2.0735	145.26	145.26
2.0735	151.66	151.66
2.0735	158.41	158.41
2.0735	162.07	162.07
2.0735	165.45	165.45
2.0735	172.72	172.72
2.0735	175.63	175.63
2.0735	180.23	180.23
2.0735	186.96	186.96
2.0735	188.06	188.06
2.0735	196.35	196.35
2.0735	197.03	197.03
2.0735	205.14	205.14
2.0735	206.01	206.01
2.0735	213.92	213.92
2.0735	214.45	214.45
2.0735	220.47	220.47
2.0735	224.24	224.24
2.0735	226.02	226.02
2.0735	232.08	232.08
2.0735	234.41	234.41
2.0735	238.49	238.49
2.0735	244.73	244.73
2.0735	244.83	244.83
2.0735	250.98	250.98
2.0735	254.42	254.42
2.0735	256.96	256.96
2.0735	262.79	262.79
2.0735	262.84	262.84
2.0735	268.73	268.73
2.0735	272.57	272.57
2.0735	274.72	274.72
2.0735	280.84	280.84
2.0735	284.40	284.40
2.0735	287.14	287.14
2.0735	293.66	293.66
2.1049	60.390	60.390
2.1049	77.864	77.864
2.1049	88.187	88.187
2.1049	96.318	96.318
2.1049	103.26	103.26
2.1049	109.44	109.44
2.1049	115.07	115.07
2.1049	117.30	117.30
2.1049	120.27	120.27
2.1049	125.15	125.15
2.1049	129.96	129.96
2.1049	135.03	135.03
2.1049	140.52	140.52
2.1049	144.09	144.09
2.1049	146.46	146.46
2.1049	152.79	152.79
2.1049	159.48	159.48
2.1049	160.90	160.90
2.1049	166.44	166.44
2.1049	173.65	173.65
2.1049	174.37	174.37
2.1049	181.11	181.11
2.1049	185.63	185.63
2.1049	188.91	188.91
2.1049	195.64	195.64
2.1049	197.16	197.16
2.1049	204.56	204.56
2.1049	205.94	205.94
2.1049	212.46	212.46
2.1049	215.24	215.24
2.1049	219.05	219.05
2.1049	224.60	224.60
2.1049	225.02	225.02
2.1049	230.56	230.56
2.1049	235.22	235.22
2.1049	236.90	236.90
2.1049	243.18	243.18
2.1049	245.68	245.68
2.1049	249.28	249.28
2.1049	255.22	255.22
2.1049	255.79	255.79
2.1049	261.07	261.07
2.1049	264.50	264.50
2.1049	266.94	266.94
2.1049	272.90	272.90
2.1049	273.75	273.75
2.1049	279.02	279.02
2.1049	285.31	285.31
2.1049	285.32	285.32
2.1049	291.84	291.84
2.1363	61.172	61.172
2.1363	78.820	78.820
2.1363	89.246	89.246
2.1363	97.458	97.458
2.1363	104.46	104.46
2.1363	110.71	110.71
2.1363	116.33	116.33
2.1363	116.39	116.39
2.1363	121.62	121.62
2.1363	126.54	126.54
2.1363	131.35	131.35
2.1363	136.37	136.37
2.1363	141.80	141.80
2.1363	143.02	143.02
2.1363	147.67	147.67
2.1363	153.94	153.94
2.1363	159.73	159.73
2.1363	160.55	160.55
2.1363	167.46	167.46
2.1363	173.11	173.11
2.1363	174.60	174.60
2.1363	182.00	182.00
2.1363	184.30	184.30
2.1363	189.76	189.76
2.1363	194.25	194.25
2.1363	197.99	197.99
2.1363	203.13	203.13
2.1363	206.75	206.75
2.1363	211.00	211.00
2.1363	216.03	216.03
2.1363	217.63	217.63
2.1363	223.19	223.19
2.1363	225.81	225.81
2.1363	229.05	229.05
2.1363	235.30	235.30
2.1363	236.03	236.03
2.1363	241.53	241.53
2.1363	246.57	246.57
2.1363	247.58	247.58
2.1363	253.48	253.48
2.1363	257.02	257.02
2.1363	259.30	259.30
2.1363	265.15	265.15
2.1363	266.23	266.23
2.1363	271.10	271.10
2.1363	275.09	275.09
2.1363	277.20	277.20
2.1363	283.50	283.50
2.1363	286.27	286.27
2.1363	290.03	290.03
2.1677	61.955	61.955
2.1677	79.776	79.776
2.1677	90.304	90.304
2.1677	98.598	98.598
2.1677	105.67	105.67
2.1677	111.97	111.97
2.1677	115.38	115.38
2.1677	117.70	117.70
2.1677	122.98	122.98
2.1677	127.93	127.93
2.1677	132.74	132.74
2.1677	137.72	137.72
2.1677	141.95	141.95
2.1677	143.09	143.09
2.1677	148.90	148.90
2.1677	155.10	155.10
2.1677	158.56	158.56
2.1677	161.65	161.65
2.1677	168.48	168.48
2.1677	171.86	171.86
2.1677	175.56	175.56
2.1677	182.91	182.91
2.1677	182.98	182.98
2.1677	190.63	190.63
2.1677	192.86	192.86
2.1677	198.83	198.83
2.1677	201.69	201.69
2.1677	207.57	207.57
2.1677	209.53	209.53
2.1677	216.20	216.20
2.1677	216.84	216.84
2.1677	221.78	221.78
2.1677	226.60	226.60
2.1677	227.55	227.55
2.1677	233.72	233.72
2.1677	236.83	236.83
2.1677	239.88	239.88
2.1677	245.89	245.89
2.1677	247.43	247.43
2.1677	251.75	251.75
2.1677	257.54	257.54
2.1677	258.11	258.11
2.1677	263.36	263.36
2.1677	267.88	267.88
2.1677	269.30	269.30
2.1677	275.39	275.39
2.1677	276.59	276.59
2.1677	281.69	281.69
2.1677	287.29	287.29
2.1677	288.23	288.23
2.1991	62.739	62.739
2.1991	80.733	80.733
2.1991	91.362	91.362
2.1991	99.737	99.737
2.1991	106.87	106.87
2.1991	113.23	113.23
2.1991	114.42	114.42
2.1991	119.01	119.01
2.1991	124.34	124.34
2.1991	129.32	129.32
2.1991	134.14	134.14
2.1991	139.08	139.08
2.1991	140.89	140.89
2.1991	144.40	144.40
2.1991	150.14	150.14
2.1991	156.27	156.27
2.1991	157.39	157.39
2.1991	162.75	162.75
2.1991	169.52	169.52
2.1991	170.60	170.60
2.1991	176.53	176.53
2.1991	181.65	181.65
2.1991	183.83	183.83
2.1991	191.47	191.47
2.1991	191.51	191.51
2.1991	199.69	199.69
2.1991	200.25	200.25
2.1991	208.07	208.07
2.1991	208.40	208.40
2.1991	214.76	214.76
2.1991	217.64	217.64
2.1991	220.37	220.37
2.1991	226.05	226.05
2.1991	227.40	227.40
2.1991	232.14	232.14
2.1991	237.63	237.63
2.1991	238.24	238.24
2.1991	244.20	244.20
2.1991	248.27	248.27
2.1991	250.02	250.02
2.1991	255.78	255.78
2.1991	259.12	259.12
2.1991	261.59	261.59
2.1991	267.51	267.51
2.1991	269.40	269.40
2.1991	273.60	273.60
2.1991	278.24	278.24
2.1991	279.89	279.89
2.1991	286.44	286.44
2.1991	288.40	288.40
2.2305	63.525	63.525
2.2305	81.689	81.689
2.2305	92.420	92.420
2.2305	100.88	100.88
2.2305	108.08	108.08
2.2305	113.47	113.47
2.2305	114.49	114.49
2.2305	120.33	120.33
2.2305	125.70	125.70
2.2305	130.71	130.71
2.2305	135.54	135.54
2.2305	139.82	139.82
2.2305	140.46	140.46
2.2305	145.72	145.72
2.2305	151.39	151.39
2.2305	156.23	156.23
2.2305	157.46	157.46
2.2305	163.87	163.87
2.2305	169.35	169.35
2.2305	170.57	170.57
2.2305	177.52	177.52
2.2305	180.33	180.33
2.2305	184.76	184.76
2.2305	190.09	190.09
2.2305	192.41	192.41
2.2305	198.82	198.82
2.2305	200.55	200.55
2.2305	206.61	206.61
2.2305	209.24	209.24
2.2305	213.32	213.32
2.2305	218.46	218.46
2.2305	218.96	218.96
2.2305	224.56	224.56
2.2305	228.20	228.20
2.2305	230.57	230.57
2.2305	236.61	236.61
2.2305	238.43	238.43
2.2305	242.52	242.52
2.2305	248.30	248.30
2.2305	249.10	249.10
2.2305	254.03	254.03
2.2305	259.82	259.82
2.2305	260.06	260.06
2.2305	265.72	265.72
2.2305	270.75	270.75
2.2305	271.81	271.81
2.2305	278.11	278.11
2.2305	279.98	279.98
2.2305	284.67	284.67
2.2305	289.62	289.62
2.2619	64.313	64.313
2.2619	82.647	82.647
2.2619	93.478	93.478
2.2619	102.01	102.01
2.2619	109.28	109.28
2.2619	112.52	112.52
2.2619	115.75	115.75
2.2619	121.64	121.64
2.2619	127.06	127.06
2.2619	132.11	132.11
2.2619	136.95	136.95
2.2619	138.76	138.76
2.2619	141.84	141.84
2.2619	147.05	147.05
2.2619	152.66	152.66
2.2619	155.07	155.07
2.2619	158.66	158.66
2.2619	165.01	165.01
2.2619	168.10	168.10
2.2619	171.63	171.63
2.2619	178.52	178.52
2.2619	179.02	179.02
2.2619	185.71	185.71
2.2619	188.71	188.71
2.2619	193.32	193.32
2.2619	197.39	197.39
2.2619	201.43	201.43
2.2619	205.15	205.15
2.2619	210.09	210.09
2.2619	211.88	211.88
2.2619	217.55	217.55
2.2619	219.29	219.29
2.2619	223.09	223.09
2.2619	229.00	229.00
2.2619	229.01	229.01
2.2619	234.98	234.98
2.2619	239.23	239.23
2.2619	240.84	240.84
2.2619	246.59	246.59
2.2619	249.91	249.91
2.2619	252.29	252.29
2.2619	258.05	258.05
2.2619	260.96	260.96
2.2619	263.95	263.95
2.2619	270.03	270.03
2.2619	271.96	271.96
2.2619	276.33	276.33
2.2619	281.72	281.72
2.2619	282.91	282.91
2.2619	289.82	289.82
2.2934	65.102	65.102
2.2934	83.604	83.604
2.2934	94.537	94.537
2.2934	103.15	103.15
2.2934	110.49	110.49
2.2934	111.57	111.57
2.2934	117.01	117.01
2.2934	122.95	122.95
2.2934	128.41	128.41
2.2934	133.50	133.50
2.2934	137.70	137.70
2.2934	138.36	138.36
2.2934	143.23	143.23
2.2934	148.39	148.39
2.2934	153.91	153.91
2.2934	153.94	153.94
2.2934	159.88	159.88
2.2934	166.15	166.15
2.2934	166.85	166.85
2.2934	172.71	172.71
2.2934	177.70	177.70
2.2934	179.53	179.53
2.2934	186.67	186.67
2.2934	187.33	187.33
2.2934	194.24	194.24
2.2934	195.97	195.97
2.2934	202.32	202.32
2.2934	203.69	203.69
2.2934	210.43	210.43
2.2934	210.95	210.95
2.2934	216.13	216.13
2.2934	220.13	220.13
2.2934	221.62	221.62
2.2934	227.45	227.45
2.2934	229.83	229.83
2.2934	233.36	233.36
2.2934	239.17	239.17
2.2934	240.04	240.04
2.2934	244.88	244.88
2.2934	250.55	250.55
2.2934	250.73	250.73
2.2934	256.30	256.30
2.2934	261.83	261.83
2.2934	262.18	262.18
2.2934	268.26	268.26
2.2934	273.05	273.05
2.2934	274.57	274.57
2.2934	281.16	281.16
2.2934	283.38	283.38
2.2934	288.10	288.10
2.3248	65.893	65.893
2.3248	84.563	84.563
2.3248	95.595	95.595
2.3248	104.29	104.29
2.3248	110.63	110.63
2.3248	111.69	111.69
2.3248	118.27	118.27
2.3248	124.26	124.26
2.3248	129.77	129.77
2.3248	134.90	134.90
2.3248	136.64	136.64
2.3248	139.77	139.77
2.3248	144.63	144.63
2.3248	149.75	149.75
2.3248	152.75	152.75
2.3248	155.24	155.24
2.3248	161.11	161.11
2.3248	165.61	165.61
2.3248	167.31	167.31
2.3248	173.80	173.80
2.3248	176.39	176.39
2.3248	180.56	180.56
2.3248	185.96	185.96
2.3248	187.65	187.65
2.3248	194.54	194.54
2.3248	195.17	195.17
2.3248	202.24	202.24
2.3248	203.23	203.23
2.3248	208.99	208.99
2.3248	211.83	211.83
2.3248	214.72	214.72
2.3248	220.15	220.15
2.3248	220.98	220.98
2.3248	225.90	225.90
2.3248	230.65	230.65
2.3248	231.75	231.75
2.3248	237.51	237.51
2.3248	240.85	240.85
2.3248	243.18	243.18
2.3248	248.82	248.82
2.3248	251.54	251.54
2.3248	254.55	254.55
2.3248	260.42	260.42
2.3248	262.67	262.67
2.3248	266.50	266.50
2.3248	272.81	272.81
2.3248	274.06	274.06
2.3248	279.42	279.42
2.3248	284.89	284.89
2.3248	286.39	286.39
2.3562	66.686	66.686
2.3562	85.522	85.522
2.3562	96.654	96.654
2.3562	105.43	105.43
2.3562	109.69	109.69
2.3562	112.89	112.89
2.3562	119.53	119.53
2.3562	125.57	125.57
2.3562	131.13	131.13
2.3562	135.58	135.58
2.3562	136.29	136.29
2.3562	141.19	141.19
2.3562	146.04	146.04
2.3562	151.11	151.11
2.3562	151.59	151.59
2.3562	156.55	156.55
2.3562	162.35	162.35
2.3562	164.37	164.37
2.3562	168.49	168.49
2.3562	174.91	174.91
2.3562	175.08	175.08
2.3562	181.60	181.60
2.3562	184.59	184.59
2.3562	188.64	188.64
2.3562	193.12	193.12
2.3562	196.13	196.13
2.3562	200.78	200.78
2.3562	204.15	204.15
2.3562	207.54	207.54
2.3562	212.72	212.72
2.3562	213.30	213.30
2.3562	218.69	218.69
2.3562	221.84	221.84
2.3562	224.36	224.36
2.3562	230.14	230.14
2.3562	231.49	231.49
2.3562	235.85	235.85
2.3562	241.48	241.48
2.3562	241.66	241.66
2.3562	247.10	247.10
2.3562	252.35	252.35
2.3562	252.81	252.81
2.3562	258.67	258.67
2.3562	263.51	263.51
2.3562	264.75	264.75
2.3562	271.07	271.07
2.3562	275.01	275.01
2.3562	277.70	277.70
2.3562	284.69	284.69
2.3562	286.26	286.26
2.3876	67.481	67.481
2.3876	86.481	86.481
2.3876	97.713	97.713
2.3876	106.57	106.57
2.3876	108.76	108.76
2.3876	114.10	114.10
2.3876	120.80	120.80
2.3876	126.88	126.88
2.3876	132.48	132.48
2.3876	134.53	134.53
2.3876	137.69	137.69
2.3876	142.61	142.61
2.3876	147.46	147.46
2.3876	150.44	150.44
2.3876	152.49	152.49
2.3876	157.87	157.87
2.3876	163.13	163.13
2.3876	163.61	163.61
2.3876	169.67	169.67
2.3876	173.77	173.77
2.3876	176.02	176.02
2.3876	182.65	182.65
2.3876	183.22	183.22
2.3876	189.64	189.64
2.3876	191.70	191.70
2.3876	197.09	197.09
2.3876	199.33	199.33
2.3876	205.08	205.08
2.3876	206.08	206.08
2.3876	211.88	211.88
2.3876	213.62	213.62
2.3876	217.24	217.24
2.3876	222.71	222.71
2.3876	222.82	222.82
2.3876	228.54	228.54
2.3876	232.33	232.33
2.3876	234.20	234.20
2.3876	239.79	239.79
2.3876	242.49	242.49
2.3876	245.38	245.38
2.3876	251.07	251.07
2.3876	253.16	253.16
2.3876	256.93	256.93
2.3876	263.01	263.01
2.3876	264.34	264.34
2.3876	269.34	269.34
2.3876	275.92	275.92
2.3876	275.99	275.99
2.3876	283.01	283.01
2.3876	287.48	287.48
2.4190	68.278	68.278
2.4190	87.442	87.442
2.4190	98.772	98.772
2.4190	107.71	107.71
2.4190	107.82	107.82
2.4190	115.30	115.30
2.4190	122.06	122.06
2.4190	128.19	128.19
2.4190	133.48	133.48
2.4190	133.84	133.84
2.4190	139.09	139.09
2.4190	144.04	144.04
2.4190	148.88	148.88
2.4190	149.28	149.28
2.4190	153.88	153.88
2.4190	159.20	159.20
2.4190	161.89	161.89
2.4190	164.88	164.88
2.4190	170.87	170.87
2.4190	172.47	172.47
2.4190	177.15	177.15
2.4190	181.86	181.86
2.4190	183.72	183.72
2.4190	190.29	190.29
2.4190	190.66	190.66
2.4190	197.88	197.88
2.4190	198.07	198.07
2.4190	204.63	204.63
2.4190	206.03	206.03
2.4190	210.46	210.46
2.4190	214.54	214.54
2.4190	215.79	215.79
2.4190	221.30	221.30
2.4190	223.59	223.59
2.4190	226.94	226.94
2.4190	232.56	232.56
2.4190	233.19	233.19
2.4190	238.11	238.11
2.4190	243.32	243.32
2.4190	243.67	243.67
2.4190	249.35	249.35
2.4190	253.98	253.98
2.4190	255.20	255.20
2.4190	261.28	261.28
2.4190	265.16	265.16
2.4190	267.63	267.63
2.4190	274.29	274.29
2.4190	276.80	276.80
2.4190	281.35	281.35
2.4190	288.60	288.60
2.4504	69.077	69.077
2.4504	88.403	88.403
2.4504	99.833	99.833
2.4504	106.89	106.89
2.4504	108.85	108.85
2.4504	116.51	116.51
2.4504	123.32	123.32
2.4504	129.50	129.50
2.4504	132.43	132.43
2.4504	135.19	135.19
2.4504	140.48	140.48
2.4504	145.46	145.46
2.4504	148.13	148.13
2.4504	150.31	150.31
2.4504	155.28	155.28
2.4504	160.55	160.55
2.4504	160.66	160.66
2.4504	166.16	166.16
2.4504	171.16	171.16
2.4504	172.09	172.09
2.4504	178.30	178.30
2.4504	180.50	180.50
2.4504	184.81	184.81
2.4504	188.88	188.88
2.4504	191.69	191.69
2.4504	196.44	196.44
2.4504	199.07	199.07
2.4504	203.17	203.17
2.4504	206.99	206.99
2.4504	209.03	209.03
2.4504	214.35	214.35
2.4504	215.47	215.47
2.4504	219.78	219.78
2.4504	224.49	224.49
2.4504	225.36	225.36
2.4504	230.92	230.92
2.4504	234.06	234.06
2.4504	236.43	236.43
2.4504	241.97	241.97
2.4504	244.16	244.16
2.4504	247.63	247.63
2.4504	253.48	253.48
2.4504	254.81	254.81
2.4504	259.56	259.56
2.4504	265.92	265.92
2.4504	265.99	265.99
2.4504	272.61	272.61
2.4504	277.67	277.67
2.4504	279.70	279.70
2.4504	287.27	287.27
2.4819	69.878	69.878
2.4819	89.366	89.366
2.4819	100.89	100.89
2.4819	105.97	105.97
2.4819	109.99	109.99
2.4819	117.71	117.71
2.4819	124.58	124.58
2.4819	130.81	130.81
2.4819	131.38	131.38
2.4819	136.55	136.55
2.4819	141.88	141.88
2.4819	146.89	146.89
2.4819	146.99	146.99
2.4819	151.74	151.74
2.4819	156.68	156.68
2.4819	159.43	159.43
2.4819	161.90	161.90
2.4819	167.45	167.45
2.4819	169.87	169.87
2.4819	173.31	173.31
2.4819	179.14	179.14
2.4819	179.46	179.46
2.4819	185.90	185.90
2.4819	187.47	187.47
2.4819	192.74	192.74
2.4819	194.99	194.99
2.4819	200.08	200.08
2.4819	201.72	201.72
2.4819	207.60	207.60
2.4819	207.97	207.97
2.4819	212.91	212.91
2.4819	216.41	216.41
2.4819	218.27	218.27
2.4819	223.78	223.78
2.4819	225.40	225.40
2.4819	229.29	229.29
2.4819	234.76	234.76
2.4819	234.93	234.93
2.4819	240.28	240.28
2.4819	245.01	245.01
2.4819	245.93	245.93
2.4819	251.77	251.77
2.4819	255.64	255.64
2.4819	257.86	257.86
2.4819	264.23	264.23
2.4819	266.82	266.82
2.4819	270.95	270.95
2.4819	278.07	278.07
2.4819	278.52	278.52
2.4819	285.68	285.68
2.5133	70.681	70.681
2.5133	90.329	90.329
2.5133	101.96	101.96
2.5133	105.04	105.04
2.5133	111.13	111.13
2.5133	118.92	118.92
2.5133	125.84	125.84
2.5133	130.33	130.33
2.5133	132.13	132.13
2.5133	137.91	137.91
2.5133	143.28	143.28
2.5133	145.84	145.84
2.5133	148.32	148.32
2.5133	153.18	153.18
2.5133	158.10	158.10
2.5133	158.20	158.20
2.5133	163.27	163.27
2.5133	168.57	168.57
2.5133	168.76	168.76
2.5133	174.55	174.55
2.5133	177.78	177.78
2.5133	180.63	180.63
2.5133	186.06	186.06
2.5133	187.02	187.02
2.5133	193.55	193.55
2.5133	193.81	193.81
2.5133	200.26	200.26
2.5133	201.11	201.11
2.5133	206.16	206.16
2.5133	208.96	208.96
2.5133	211.47	211.47
2.5133	216.77	216.77
2.5133	217.36	217.36
2.5133	222.21	222.21
2.5133	226.32	226.32
2.5133	227.66	227.66
2.5133	233.10	233.10
2.5133	235.82	235.82
2.5133	238.59	238.59
2.5133	244.23	244.23
2.5133	245.87	245.87
2.5133	250.07	250.07
2.5133	256.17	256.17
2.5133	256.48	256.48
2.5133	262.56	262.56
2.5133	267.65	267.65
2.5133	269.30	269.30
2.5133	276.46	276.46
2.5133	279.37	279.37
2.5133	284.11	284.11
2.5447	71.486	71.486
2.5447	91.294	91.294
2.5447	103.02	103.02
2.5447	104.12	104.12
2.5447	112.27	112.27
2.5447	120.12	120.12
2.5447	127.10	127.10
2.5447	129.29	129.29
2.5447	133.44	133.44
2.5447	139.27	139.27
2.5447	144.67	144.67
2.5447	144.70	144.70
2.5447	149.75	149.75
2.5447	154.62	154.62
2.5447	156.97	156.97
2.5447	159.52	159.52
2.5447	164.65	164.65
2.5447	167.28	167.28
2.5447	170.08	170.08
2.5447	175.80	175.80
2.5447	176.43	176.43
2.5447	181.81	181.81
2.5447	184.66	184.66
2.5447	188.14	188.14
2.5447	192.11	192.11
2.5447	194.89	194.89
2.5447	198.81	198.81
2.5447	202.15	202.15
2.5447	204.72	204.72
2.5447	209.97	209.97
2.5447	210.03	210.03
2.5447	215.27	215.27
2.5447	218.34	218.34
2.5447	220.64	220.64
2.5447	226.04	226.04
2.5447	227.26	227.26
2.5447	231.44	231.44
2.5447	236.72	236.72
2.5447	236.91	236.91
2.5447	242.54	242.54
2.5447	246.74	246.74
2.5447	248.38	248.38
2.5447	254.48	254.48
2.5447	257.32	257.32
2.5447	260.89	260.89
2.5447	267.67	267.67
2.5447	268.48	268.48
2.5447	274.86	274.86
2.5447	280.21	280.21
2.5447	282.56	282.56
2.5761	72.294	72.294
2.5761	92.259	92.259
2.5761	103.21	103.21
2.5761	104.08	104.08
2.5761	113.41	113.41
2.5761	121.33	121.33
2.5761	128.25	128.25
2.5761	128.37	128.37
2.5761	134.75	134.75
2.5761	140.62	140.62
2.5761	143.56	143.56
2.5761	146.07	146.07
2.5761	151.18	151.18
2.5761	155.75	155.75
2.5761	156.07	156.07
2.5761	160.95	160.95
2.5761	165.99	165.99
2.5761	166.03	166.03
2.5761	171.41	171.41
2.5761	175.09	175.09
2.5761	177.07	177.07
2.5761	183.01	183.01
2.5761	183.26	183.26
2.5761	189.28	189.28
2.5761	190.67	190.67
2.5761	195.99	195.99
2.5761	197.35	197.35
2.5761	203.21	203.21
2.5761	203.28	203.28
2.5761	208.60	208.60
2.5761	210.99	210.99
2.5761	213.78	213.78
2.5761	219.09	219.09
2.5761	219.32	219.32
2.5761	224.43	224.43
2.5761	228.21	228.21
2.5761	229.80	229.80
2.5761	235.24	235.24
2.5761	237.64	237.64
2.5761	240.86	240.86
2.5761	246.70	246.70
2.5761	247.62	247.62
2.5761	252.82	252.82
2.5761	258.18	258.18
2.5761	259.25	259.25
2.5761	266.05	266.05
2.5761	269.32	269.32
2.5761	273.28	273.28
2.5761	281.03	281.03
2.5761	281.05	281.05
2.6075	73.103	73.103
2.6075	93.226	93.226
2.6075	102.29	102.29
2.6075	105.15	105.15
2.6075	114.55	114.55
2.6075	122.54	122.54
2.6075	127.21	127.21
2.6075	129.63	129.63
2.6075	136.07	136.07
2.6075	141.98	141.98
2.6075	142.42	142.42
2.6075	147.47	147.47
2.6075	152.61	152.61
2.6075	154.53	154.53
2.6075	157.52	157.52
2.6075	162.39	162.39
2.6075	164.70	164.70
2.6075	167.43	167.43
2.6075	172.75	172.75
2.6075	173.74	173.74
2.6075	178.34	178.34
2.6075	181.87	181.87
2.6075	184.22	184.22
2.6075	189.24	189.24
2.6075	190.44	190.44
2.6075	195.90	195.90
2.6075	197.11	197.11
2.6075	201.83	201.83
2.6075	204.29	204.29
2.6075	207.16	207.16
2.6075	212.03	212.03
2.6075	212.30	212.30
2.6075	217.54	217.54
2.6075	220.32	220.32
2.6075	222.83	222.83
2.6075	228.16	228.16
2.6075	229.17	229.17
2.6075	233.58	233.58
2.6075	238.56	238.56
2.6075	239.19	239.19
2.6075	245.04	245.04
2.6075	248.52	248.52
2.6075	251.16	251.16
2.6075	257.61	257.61
2.6075	259.05	259.05
2.6075	264.45	264.45
2.6075	270.17	270.17
2.6075	271.72	271.72
2.6075	279.51	279.51
2.6075	281.90	281.90
2.6389	73.915	73.915
2.6389	94.195	94.195
2.6389	101.38	101.38
2.6389	106.21	106.21
2.6389	115.70	115.70
2.6389	123.74	123.74
2.6389	126.17	126.17
2.6389	130.90	130.90
2.6389	137.38	137.38
2.6389	141.29	141.29
2.6389	143.34	143.34
2.6389	148.87	148.87
2.6389	153.31	153.31
2.6389	154.05	154.05
2.6389	158.97	158.97
2.6389	163.42	163.42
2.6389	163.83	163.83
2.6389	168.84	168.84
2.6389	172.40	172.40
2.6389	174.10	174.10
2.6389	179.63	179.63
2.6389	180.48	180.48
2.6389	185.45	185.45
2.6389	187.81	187.81
2.6389	191.61	191.61
2.6389	194.45	194.45
2.6389	198.24	198.24
2.6389	200.39	200.39
2.6389	205.39	205.39
2.6389	205.72	205.72
2.6389	210.82	210.82
2.6389	213.09	213.09
2.6389	216.00	216.00
2.6389	221.24	221.24
2.6389	221.34	221.34
2.6389	226.53	226.53
2.6389	230.15	230.15
2.6389	231.93	231.93
2.6389	237.53	237.53
2.6389	239.50	239.50
2.6389	243.38	243.38
2.6389	249.42	249.42
2.6389	249.52	249.52
2.6389	255.99	255.99
2.6389	259.92	259.92
2.6389	262.86	262.86
2.6389	270.18	270.18
2.6389	271.02	271.02
2.6389	278.01	278.01
2.6389	282.74	282.74
2.6704	74.730	74.730
2.6704	95.164	95.164
2.6704	100.48	100.48
2.6704	107.28	107.28
2.6704	116.84	116.84
2.6704	124.95	124.95
2.6704	125.14	125.14
2.6704	132.16	132.16
2.6704	138.70	138.70
2.6704	140.15	140.15
2.6704	144.70	144.70
2.6704	150.27	150.27
2.6704	152.10	152.10
2.6704	155.48	155.48
2.6704	160.43	160.43
2.6704	162.14	162.14
2.6704	165.28	165.28
2.6704	170.25	170.25
2.6704	171.06	171.06
2.6704	175.46	175.46
2.6704	179.09	179.09
2.6704	180.93	180.93
2.6704	186.38	186.38
2.6704	186.68	186.68
2.6704	192.80	192.80
2.6704	193.00	193.00
2.6704	198.94	198.94
2.6704	199.39	199.39
2.6704	204.28	204.28
2.6704	206.50	206.50
2.6704	209.35	209.35
2.6704	214.16	214.16
2.6704	214.47	214.47
2.6704	219.65	219.65
2.6704	222.37	222.37
2.6704	224.90	224.90
2.6704	230.29	230.29
2.6704	231.14	231.14
2.6704	235.88	235.88
2.6704	240.46	240.46
2.6704	241.74	241.74
2.6704	247.89	247.89
2.6704	250.34	250.34
2.6704	254.39	254.39
2.6704	260.81	260.81
2.6704	261.29	261.29
2.6704	268.65	268.65
2.6704	271.89	271.89
2.6704	276.54	276.54
2.6704	283.60	283.60
2.7018	75.547	75.547
2.7018	96.135	96.135
2.7018	99.573	99.573
2.7018	108.35	108.35
2.7018	117.99	117.99
2.7018	124.11	124.11
2.7018	126.17	126.17
2.7018	133.43	133.43
2.7018	139.02	139.02
2.7018	140.01	140.01
2.7018	146.06	146.06
2.7018	150.89	150.89
2.7018	151.67	151.67
2.7018	156.92	156.92
2.7018	160.86	160.86
2.7018	161.88	161.88
2.7018	166.73	166.73
2.7018	169.72	169.72
2.7018	171.67	171.67
2.7018	176.83	176.83
2.7018	177.70	177.70
2.7018	182.24	182.24
2.7018	184.95	184.95
2.7018	187.94	187.94
2.7018	191.55	191.55
2.7018	194.01	194.01
2.7018	197.49	197.49
2.7018	200.55	200.55
2.7018	202.84	202.84
2.7018	207.62	207.62
2.7018	207.88	207.88
2.7018	212.94	212.94
2.7018	215.25	215.25
2.7018	218.07	218.07
2.7018	223.29	223.29
2.7018	223.42	223.42
2.7018	228.65	228.65
2.7018	232.14	232.14
2.7018	234.24	234.24
2.7018	240.10	240.10
2.7018	241.42	241.42
2.7018	246.28	246.28
2.7018	251.27	251.27
2.7018	252.80	252.80
2.7018	259.74	259.74
2.7018	261.71	261.71
2.7018	267.14	267.14
2.7018	272.76	272.76
2.7018	275.08	275.08
2.7018	283.60	283.60
2.7332	76.366	76.366
2.7332	97.108	97.108
2.7332	98.673	98.673
2.7332	109.42	109.42
2.7332	119.14	119.14
2.7332	123.08	123.08
2.7332	127.38	127.38
2.7332	134.70	134.70
2.7332	137.90	137.90
2.7332	141.33	141.33
2.7332	147.43	147.43
2.7332	149.68	149.68
2.7332	153.08	153.08
2.7332	158.35	158.35
2.7332	159.59	159.59
2.7332	163.34	163.34
2.7332	168.19	168.19
2.7332	168.39	168.39
2.7332	173.10	173.10
2.7332	176.32	176.32
2.7332	178.21	178.21
2.7332	183.53	183.53
2.7332	183.56	183.56
2.7332	189.20	189.20
2.7332	190.10	190.10
2.7332	195.23	195.23
2.7332	196.03	196.03
2.7332	201.39	201.39
2.7332	201.73	201.73
2.7332	206.42	206.42
2.7332	208.77	208.77
2.7332	211.42	211.42
2.7332	216.35	216.35
2.7332	216.50	216.50
2.7332	221.68	221.68
2.7332	224.48	224.48
2.7332	227.03	227.03
2.7332	232.62	232.62
2.7332	233.17	233.17
2.7332	238.48	238.48
2.7332	242.41	242.41
2.7332	244.67	244.67
2.7332	251.23	251.23
2.7332	252.22	252.22
2.7332	258.20	258.20
2.7332	262.62	262.62
2.7332	265.65	265.65
2.7332	273.63	273.63
2.7332	273.64	273.64
2.7332	282.21	282.21
2.7646	77.188	77.188
2.7646	97.776	97.776
2.7646	98.082	98.082
2.7646	110.49	110.49
2.7646	120.29	120.29
2.7646	122.05	122.05
2.7646	128.59	128.59
2.7646	135.97	135.97
2.7646	136.77	136.77
2.7646	142.65	142.65
2.7646	148.47	148.47
2.7646	148.79	148.79
2.7646	154.48	154.48
2.7646	158.32	158.32
2.7646	159.79	159.79
2.7646	164.80	164.80
2.7646	167.06	167.06
2.7646	169.66	169.66
2.7646	174.54	174.54
2.7646	174.94	174.94
2.7646	179.59	179.59
2.7646	182.11	182.11
2.7646	184.89	184.89
2.7646	188.65	188.65
2.7646	190.48	190.48
2.7646	194.58	194.58
2.7646	196.47	196.47
2.7646	199.94	199.94
2.7646	202.93	202.93
2.7646	204.95	204.95
2.7646	209.91	209.91
2.7646	209.93	209.93
2.7646	214.94	214.94
2.7646	217.48	217.48
2.7646	220.08	220.08
2.7646	225.42	225.42
2.7646	225.56	225.56
2.7646	231.00	231.00
2.7646	234.20	234.20
2.7646	236.88	236.88
2.7646	243.09	243.09
2.7646	243.40	243.40
2.7646	249.67	249.67
2.7646	253.17	253.17
2.7646	256.68	256.68
2.7646	263.54	263.54
2.7646	264.18	264.18
2.7646	272.21	272.21
2.7646	274.54	274.54
2.7646	280.84	280.84
2.7960	78.013	78.013
2.7960	96.882	96.882
2.7960	99.058	99.058
2.7960	111.56	111.56
2.7960	121.03	121.03
2.7960	121.44	121.44
2.7960	129.81	129.81
2.7960	135.65	135.65
2.7960	137.24	137.24
2.7960	143.97	143.97
2.7960	147.27	147.27
2.7960	150.16	150.16
2.7960	155.88	155.88
2.7960	157.05	157.05
2.7960	161.23	161.23
2.7960	165.74	165.74
2.7960	166.27	166.27
2.7960	171.12	171.12
2.7960	173.57	173.57
2.7960	175.98	175.98
2.7960	180.69	180.69
2.7960	180.99	180.99
2.7960	186.23	186.23
2.7960	187.20	187.20
2.7960	191.77	191.77
2.7960	193.12	193.12
2.7960	197.72	197.72
2.7960	198.49	198.49
2.7960	203.49	203.49
2.7960	204.15	204.15
2.7960	208.40	208.40
2.7960	211.11	211.11
2.7960	213.38	213.38
2.7960	218.49	218.49
2.7960	218.62	218.62
2.7960	223.81	223.81
2.7960	226.66	226.66
2.7960	229.39	229.39
2.7960	235.26	235.26
2.7960	235.28	235.28
2.7960	241.52	241.52
2.7960	244.41	244.41
2.7960	248.13	248.13
2.7960	254.14	254.14
2.7960	255.18	255.18
2.7960	262.72	262.72
2.7960	264.48	264.48
2.7960	270.81	270.81
2.7960	275.44	275.44
2.7960	279.49	279.49
2.8274	78.840	78.840
2.8274	95.992	95.992
2.8274	100.03	100.03
2.8274	112.63	112.63
2.8274	120.00	120.00
2.8274	122.59	122.59
2.8274	131.02	131.02
2.8274	134.53	134.53
2.8274	138.51	138.51
2.8274	145.29	145.29
2.8274	146.07	146.07
2.8274	151.52	151.52
2.8274	155.78	155.78
2.8274	157.29	157.29
2.8274	162.67	162.67
2.8274	164.41	164.41
2.8274	167.73	167.73
2.8274	172.19	172.19
2.8274	172.59	172.59
2.8274	177.43	177.43
2.8274	179.28	179.28
2.8274	182.39	182.39
2.8274	185.76	185.76
2.8274	187.58	187.58
2.8274	191.67	191.67
2.8274	193.08	193.08
2.8274	197.04	197.04
2.8274	198.99	198.99
2.8274	202.03	202.03
2.8274	205.39	205.39
2.8274	206.90	206.90
2.8274	211.83	211.83
2.8274	212.31	212.31
2.8274	216.92	216.92
2.8274	219.77	219.77
2.8274	222.22	222.22
2.8274	227.77	227.77
2.8274	227.80	227.80
2.8274	233.70	233.70
2.8274	236.32	236.32
2.8274	239.96	239.96
2.8274	245.44	245.44
2.8274	246.61	246.61
2.8274	253.70	253.70
2.8274	255.13	255.13
2.8274	261.29	261.29
2.8274	265.43	265.43
2.8274	269.42	269.42
2.8274	276.36	276.36
2.8274	278.15	278.15
2.8588	79.670	79.670
2.8588	95.105	95.105
2.8588	101.01	101.01
2.8588	113.71	113.71
2.8588	118.98	118.98
2.8588	123.74	123.74
2.8588	132.24	132.24
2.8588	133.41	133.41
2.8588	139.79	139.79
2.8588	144.87	144.87
2.8588	146.62	146.62
2.8588	152.89	152.89
2.8588	154.52	154.52
2.8588	158.70	158.70
2.8588	163.09	163.09
2.8588	164.11	164.11
2.8588	169.19	169.19
2.8588	170.82	170.82
2.8588	174.06	174.06
2.8588	177.87	177.87
2.8588	178.88	178.88
2.8588	183.81	183.81
2.8588	184.32	184.32
2.8588	188.95	188.95
2.8588	190.21	190.21
2.8588	194.40	194.40
2.8588	195.59	195.59
2.8588	200.28	200.28
2.8588	200.57	200.57
2.8588	205.41	205.41
2.8588	206.64	206.64
2.8588	210.30	210.30
2.8588	213.53	213.53
2.8588	215.35	215.35
2.8588	220.64	220.64
2.8588	220.95	220.95
2.8588	226.22	226.22
2.8588	228.90	228.90
2.8588	232.14	232.14
2.8588	237.41	237.41
2.8588	238.42	238.42
2.8588	245.10	245.10
2.8588	246.48	246.48
2.8588	252.23	252.23
2.8588	256.13	256.13
2.8588	259.87	259.87
2.8588	266.39	266.39
2.8588	268.05	268.05
2.8588	276.84	276.84
2.8588	277.29	277.29
2.8903	80.502	80.502
2.8903	94.221	94.221
2.8903	101.99	101.99
2.8903	114.78	114.78
2.8903	117.97	117.97
2.8903	124.90	124.90
2.8903	132.30	132.30
2.8903	133.46	133.46
2.8903	141.06	141.06
2.8903	143.68	143.68
2.8903	147.94	147.94
2.8903	153.26	153.26
2.8903	154.26	154.26
2.8903	160.10	160.10
2.8903	161.78	161.78
2.8903	165.55	165.55
2.8903	169.46	169.46
2.8903	170.66	170.66
2.8903	175.54	175.54
2.8903	176.46	176.46
2.8903	180.34	180.34
2.8903	182.88	182.88
2.8903	185.22	185.22
2.8903	188.76	188.76
2.8903	190.32	190.32
2.8903	194.13	194.13
2.8903	195.74	195.74
2.8903	199.11	199.11
2.8903	201.58	201.58
2.8903	203.91	203.91
2.8903	207.91	207.91
2.8903	208.77	208.77
2.8903	213.79	213.79
2.8903	214.76	214.76
2.8903	219.07	219.07
2.8903	222.14	222.14
2.8903	224.65	224.65
2.8903	230.05	230.05
2.8903	230.59	230.59
2.8903	236.89	236.89
2.8903	238.51	238.51
2.8903	243.61	243.61
2.8903	247.53	247.53
2.8903	250.79	250.79
2.8903	257.14	257.14
2.8903	258.47	258.47
2.8903	266.70	266.70
2.8903	267.36	267.36
2.8903	275.54	275.54
2.8903	278.23	278.23
2.9217	81.338	81.338
2.9217	93.340	93.340
2.9217	102.98	102.98
2.9217	115.86	115.86
2.9217	116.95	116.95
2.9217	126.06	126.06
2.9217	131.19	131.19
2.9217	134.68	134.68
2.9217	142.34	142.34
2.9217	142.48	142.48
2.9217	149.27	149.27
2.9217	152.01	152.01
2.9217	155.63	155.63
2.9217	160.46	160.46
2.9217	161.51	161.51
2.9217	166.99	166.99
2.9217	168.09	168.09
2.9217	172.13	172.13
2.9217	175.05	175.05
2.9217	177.01	177.01
2.9217	181.44	181.44
2.9217	181.80	181.80
2.9217	186.65	186.65
2.9217	187.30	187.30
2.9217	191.71	191.71
2.9217	192.67	192.67
2.9217	197.09	197.09
2.9217	197.64	197.64
2.9217	202.43	202.43
2.9217	202.90	202.90
2.9217	207.24	207.24
2.9217	209.20	209.20
2.9217	212.24	212.24
2.9217	216.01	216.01
2.9217	217.51	217.51
2.9217	223.10	223.10
2.9217	223.35	223.35
2.9217	229.05	229.05
2.9217	231.21	231.21
2.9217	235.38	235.38
2.9217	239.63	239.63
2.9217	242.14	242.14
2.9217	248.60	248.60
2.9217	249.36	249.36
2.9217	257.09	257.09
2.9217	258.17	258.17
2.9217	265.37	265.37
2.9217	268.35	268.35
2.9217	274.26	274.26
2.9217	279.18	279.18
2.9531	82.176	82.176
2.9531	92.463	92.463
2.9531	103.96	103.96
2.9531	115.94	115.94
2.9531	116.94	116.94
2.9531	127.22	127.22
2.9531	130.08	130.08
2.9531	135.90	135.90
2.9531	141.30	141.30
2.9531	143.62	143.62
2.9531	150.60	150.60
2.9531	150.75	150.75
2.9531	157.00	157.00
2.9531	159.15	159.15
2.9531	162.93	162.93
2.9531	166.73	166.73
2.9531	168.44	168.44
2.9531	173.59	173.59
2.9531	173.65	173.65
2.9531	178.49	178.49
2.9531	180.00	180.00
2.9531	183.26	183.26
2.9531	185.84	185.84
2.9531	188.08	188.08
2.9531	191.21	191.21
2.9531	193.10	193.10
2.9531	196.18	196.18
2.9531	198.46	198.46
2.9531	200.94	200.94
2.9531	204.24	204.24
2.9531	205.73	205.73
2.9531	210.51	210.51
2.9531	210.70	210.70
2.9531	215.96	215.96
2.9531	217.28	217.28
2.9531	221.56	221.56
2.9531	224.57	224.57
2.9531	227.53	227.53
2.9531	232.39	232.39
2.9531	233.89	233.89
2.9531	240.68	240.68
2.9531	240.76	240.76
2.9531	247.94	247.94
2.9531	249.69	249.69
2.9531	255.72	255.72
2.9531	259.21	259.21
2.9531	264.06	264.06
2.9531	269.35	269.35
2.9531	273.00	273.00
2.9531	280.15	280.15
2.9845	83.017	83.017
2.9845	91.589	91.589
2.9845	104.95	104.95
2.9845	114.93	114.93
2.9845	118.03	118.03
2.9845	128.38	128.38
2.9845	128.97	128.97
2.9845	137.13	137.13
2.9845	140.11	140.11
2.9845	144.90	144.90
2.9845	149.50	149.50
2.9845	151.93	151.93
2.9845	157.84	157.84
2.9845	158.38	158.38
2.9845	164.34	164.34
2.9845	165.37	165.37
2.9845	169.88	169.88
2.9845	172.25	172.25
2.9845	175.06	175.06
2.9845	178.57	178.57
2.9845	179.97	179.97
2.9845	184.39	184.39
2.9845	184.73	184.73
2.9845	189.52	189.52
2.9845	189.74	189.74
2.9845	194.51	194.51
2.9845	194.71	194.71
2.9845	199.46	199.46
2.9845	199.84	199.84
2.9845	204.22	204.22
2.9845	205.60	205.60
2.9845	209.17	209.17
2.9845	211.83	211.83
2.9845	214.43	214.43
2.9845	218.57	218.57
2.9845	220.03	220.03
2.9845	225.82	225.82
2.9845	226.02	226.02
2.9845	232.41	232.41
2.9845	233.59	233.59
2.9845	239.24	239.24
2.9845	241.91	241.91
2.9845	246.55	246.55
2.9845	250.80	250.80
2.9845	254.38	254.38
2.9845	260.27	260.27
2.9845	262.77	262.77
2.9845	270.37	270.37
2.9845	271.76	271.76
2.9845	281.13	281.13
3.0159	83.860	83.860
3.0159	90.718	90.718
3.0159	105.94	105.94
3.0159	113.92	113.92
3.0159	119.11	119.11
3.0159	127.87	127.87
3.0159	129.54	129.54
3.0159	138.36	138.36
3.0159	138.92	138.92
3.0159	146.18	146.18
3.0159	148.25	148.25
3.0159	153.27	153.27
3.0159	156.54	156.54
3.0159	159.76	159.76
3.0159	164.02	164.02
3.0159	165.75	165.75
3.0159	170.85	170.85
3.0159	171.33	171.33
3.0159	176.53	176.53
3.0159	177.14	177.14
3.0159	181.44	181.44
3.0159	182.93	182.93
3.0159	186.20	186.20
3.0159	188.28	188.28
3.0159	190.96	190.96
3.0159	193.24	193.24
3.0159	195.93	195.93
3.0159	197.98	197.98
3.0159	201.23	201.23
3.0159	202.72	202.72
3.0159	206.97	206.97
3.0159	207.66	207.66
3.0159	212.91	212.91
3.0159	213.18	213.18
3.0159	218.52	218.52
3.0159	219.88	219.88
3.0159	224.53	224.53
3.0159	227.08	227.08
3.0159	230.95	230.95
3.0159	234.81	234.81
3.0159	237.82	237.82
3.0159	243.08	243.08
3.0159	245.17	245.17
3.0159	251.92	251.92
3.0159	253.05	253.05
3.0159	261.35	261.35
3.0159	261.49	261.49
3.0159	270.53	270.53
3.0159	271.40	271.40
3.0159	280.22	280.22
3.0473	84.707	84.707
3.0473	89.850	89.850
3.0473	106.93	106.93
3.0473	112.92	112.92
3.0473	120.20	120.20
3.0473	126.76	126.76
3.0473	130.71	130.71
3.0473	137.74	137.74
3.0473	139.58	139.58
3.0473	147.01	147.01
3.0473	147.47	147.47
3.0473	154.60	154.60
3.0473	155.23	155.23
3.0473	161.14	161.14
3.0473	162.66	162.66
3.0473	167.17	167.17
3.0473	169.46	169.46
3.0473	172.77	172.77
3.0473	175.71	175.71
3.0473	178.00	178.00
3.0473	181.48	181.48
3.0473	182.92	182.92
3.0473	186.81	186.81
3.0473	187.67	187.67
3.0473	191.77	191.77
3.0473	192.41	192.41
3.0473	196.51	196.51
3.0473	197.35	197.35
3.0473	201.23	201.23
3.0473	202.64	202.64
3.0473	206.15	206.15
3.0473	208.35	208.35
3.0473	211.40	211.40
3.0473	214.54	214.54
3.0473	217.02	217.02
3.0473	221.20	221.20
3.0473	223.05	223.05
3.0473	228.36	228.36
3.0473	229.50	229.50
3.0473	236.04	236.04
3.0473	236.41	236.41
3.0473	243.82	243.82
3.0473	244.26	244.26
3.0473	251.74	251.74
3.0473	253.05	253.05
3.0473	260.23	260.23
3.0473	262.44	262.44
3.0473	269.32	269.32
3.0473	272.45	272.45
3.0473	279.06	279.06
3.0788	85.557	85.557
3.0788	88.985	88.985
3.0788	107.92	107.92
3.0788	111.91	111.91
3.0788	121.29	121.29
3.0788	125.66	125.66
3.0788	131.87	131.87
3.0788	136.56	136.56
3.0788	140.82	140.82
3.0788	145.76	145.76
3.0788	148.76	148.76
3.0788	153.93	153.93
3.0788	155.94	155.94
3.0788	161.31	161.31
3.0788	162.52	162.52
3.0788	168.06	168.06
3.0788	168.59	168.59
3.0788	174.22	174.22
3.0788	174.28	174.28
3.0788	179.47	179.47
3.0788	180.02	180.02
3.0788	184.40	184.40
3.0788	185.34	185.34
3.0788	189.14	189.14
3.0788	190.30	190.30
3.0788	193.87	193.87
3.0788	195.03	195.03
3.0788	198.79	198.79
3.0788	199.75	199.75
3.0788	204.06	204.06
3.0788	204.66	204.66
3.0788	209.76	209.76
3.0788	209.90	209.90
3.0788	215.54	215.54
3.0788	215.91	215.91
3.0788	221.59	221.59
3.0788	222.54	222.54
3.0788	228.08	228.08
3.0788	229.66	229.66
3.0788	235.03	235.03
3.0788	237.29	237.29
3.0788	242.48	242.48
3.0788	245.47	245.47
3.0788	250.45	250.45
3.0788	254.21	254.21
3.0788	258.99	258.99
3.0788	263.54	263.54
3.0788	268.13	268.13
3.0788	273.51	273.51
3.0788	277.92	277.92
3.1102	86.409	86.409
3.1102	88.123	88.123
3.1102	108.91	108.91
3.1102	110.91	110.91
3.1102	122.38	122.38
3.1102	124.57	124.57
3.1102	133.04	133.04
3.1102	135.39	135.39
3.1102	142.05	142.05
3.1102	144.52	144.52
3.1102	150.05	150.05
3.1102	152.64	152.64
3.1102	157.28	157.28
3.1102	159.97	159.97
3.1102	163.90	163.90
3.1102	166.67	166.67
3.1102	170.01	170.01
3.1102	172.85	172.85
3.1102	175.67	175.67
3.1102	178.57	178.57
3.1102	180.94	180.94
3.1102	183.88	183.88
3.1102	185.88	185.88
3.1102	188.83	188.83
3.1102	190.61	190.61
3.1102	193.56	193.56
3.1102	195.33	195.33
3.1102	198.27	198.27
3.1102	200.24	200.24
3.1102	203.17	203.17
3.1102	205.50	205.50
3.1102	208.42	208.42
3.1102	211.18	211.18
3.1102	214.07	214.07
3.1102	217.31	217.31
3.1102	220.14	220.14
3.1102	223.90	223.90
3.1102	226.67	226.67
3.1102	230.97	230.97
3.1102	233.66	233.66
3.1102	238.56	238.56
3.1102	241.15	241.15
3.1102	246.69	246.69
3.1102	249.18	249.18
3.1102	255.38	255.38
3.1102	257.77	257.77
3.1102	264.66	264.66
3.1102	266.96	266.96
3.1102	274.59	274.59
3.1102	276.79	276.79
3.1416	87.265	87.265
3.1416	87.265	87.265
3.1416	109.91	109.91
3.1416	109.91	109.91
3.1416	123.47	123.47
3.1416	123.47	123.47
3.1416	134.21	134.21
3.1416	134.21	134.21
3.1416	143.29	143.29
3.1416	143.29	143.29
3.1416	151.34	151.34
3.1416	151.34	151.34
3.1416	158.62	158.62
3.1416	158.62	158.62
3.1416	165.29	165.29
3.1416	165.29	165.29
3.1416	171.43	171.43
3.1416	171.43	171.43
3.1416	177.12	177.12
3.1416	177.12	177.12
3.1416	182.41	182.41
3.1416	182.41	182.41
3.1416	187.35	187.35
3.1416	187.35	187.35
3.1416	192.08	192.08
3.1416	192.08	192.08
3.1416	196.79	196.79
3.1416	196.79	196.79
3.1416	201.70	201.70
3.1416	201.70	201.70
3.1416	206.95	206.95
3.1416	206.95	206.95
3.1416	212.62	212.62
3.1416	212.62	212.62
3.1416	218.72	218.72
3.1416	218.72	218.72
3.1416	225.27	225.27
3.1416	225.27	225.27
3.1416	232.31	232.31
3.1416	232.31	232.31
3.1416	239.85	239.85
3.1416	239.85	239.85
3.1416	247.92	247.92
3.1416	247.92	247.92
3.1416	256.56	256.56
3.1416	256.56	256.56
3.1416	265.80	265.80
3.1416	265.80	265.80
3.1416	275.68	275.68
3.1416	275.68	275.68