kx (1/m)	Eigenfrequency (Hz)	real(freq) (Hz)
0.0000	0.13395	0.13395
0.0000	0.26790	0.26790
0.0000	0.75511	0.75511
0.0000	1.5102	1.5102
0.0000	2.1374	2.1374
0.0000	4.0031	4.0031
0.0000	4.2748	4.2748
0.0000	6.0879	6.0879
0.0000	8.0062	8.0062
0.0000	8.6532	8.6532
0.0000	12.011	12.011
0.0000	12.176	12.176
0.0000	15.301	15.301
0.0000	17.306	17.306
0.0000	18.994	18.994
0.0000	23.462	23.462
0.0000	24.022	24.022
0.0000	28.566	28.566
0.0000	30.602	30.602
0.0000	32.556	32.556
0.0000	37.989	37.989
0.0000	38.303	38.303
0.0000	43.213	43.213
0.0000	46.924	46.924
0.0000	49.201	49.201
0.031416	2.2155	2.2155
0.031416	2.5665	2.5665
0.031416	3.5549	3.5549
0.031416	4.1124	4.1124
0.031416	5.0417	5.0417
0.031416	5.1708	5.1708
0.031416	6.2834	6.2834
0.031416	6.7042	6.7042
0.031416	8.7320	8.7320
0.031416	9.3899	9.3899
0.031416	12.091	12.091
0.031416	12.965	12.965
0.031416	15.498	15.498
0.031416	17.878	17.878
0.031416	19.192	19.192
0.031416	23.558	23.558
0.031416	24.399	24.399
0.031416	28.619	28.619
0.031416	30.878	30.878
0.031416	32.626	32.626
0.031416	38.109	38.109
0.031416	38.502	38.502
0.031416	43.277	43.277
0.031416	47.091	47.091
0.031416	49.259	49.259
0.031416	54.174	54.174
0.031416	57.253	57.253
0.031416	61.028	61.028
0.031416	65.219	65.219
0.031416	67.644	67.644
0.031416	73.517	73.517
0.031416	76.699	76.699
0.031416	79.678	79.678
0.031416	86.483	86.483
0.031416	87.565	87.565
0.031416	92.845	92.845
0.031416	98.472	98.472
0.031416	99.960	99.960
0.031416	106.73	106.73
0.031416	108.32	108.32
0.031416	113.28	113.28
0.031416	119.74	119.74
0.031416	122.05	122.05
0.031416	127.07	127.07
0.031416	133.54	133.54
0.031416	135.28	135.28
0.031416	140.14	140.14
0.031416	146.99	146.99
0.031416	147.57	147.57
0.031416	153.56	153.56
0.062832	4.1996	4.1996
0.062832	5.0216	5.0216
0.062832	5.4393	5.4393
0.062832	6.2617	6.2617
0.062832	6.9585	6.9585
0.062832	8.9308	8.9308
0.062832	10.018	10.018
0.062832	10.247	10.247
0.062832	10.812	10.812
0.062832	11.760	11.760
0.062832	12.996	12.996
0.062832	14.744	14.744
0.062832	16.264	16.264
0.062832	19.186	19.186
0.062832	20.023	20.023
0.062832	23.885	23.885
0.062832	25.480	25.480
0.062832	28.798	28.798
0.062832	31.680	31.680
0.062832	32.847	32.847
0.062832	38.376	38.376
0.062832	39.173	39.173
0.062832	43.472	43.472
0.062832	47.574	47.574
0.062832	49.448	49.448
0.062832	54.308	54.308
0.062832	57.614	57.614
0.062832	61.135	61.135
0.062832	65.539	65.539
0.062832	67.712	67.712
0.062832	73.591	73.591
0.062832	76.974	76.974
0.062832	79.768	79.768
0.062832	86.645	86.645
0.062832	87.680	87.680
0.062832	92.891	92.891
0.062832	98.679	98.679
0.062832	100.01	100.01
0.062832	106.77	106.77
0.062832	108.50	108.50
0.062832	113.33	113.33
0.062832	119.79	119.79
0.062832	122.23	122.23
0.062832	127.11	127.11
0.062832	133.57	133.57
0.062832	135.40	135.40
0.062832	140.19	140.19
0.062832	147.02	147.02
0.062832	147.72	147.72
0.062832	153.58	153.58
0.094248	5.9906	5.9906
0.094248	7.5129	7.5129
0.094248	7.7211	7.7211
0.094248	7.9674	7.9674
0.094248	8.6641	8.6641
0.094248	10.192	10.192
0.094248	12.573	12.573
0.094248	14.935	14.935
0.094248	15.018	15.018
0.094248	15.182	15.182
0.094248	15.687	15.687
0.094248	16.836	16.836
0.094248	18.288	18.288
0.094248	20.373	20.373
0.094248	22.128	22.128
0.094248	24.527	24.527
0.094248	27.192	27.192
0.094248	29.144	29.144
0.094248	32.922	32.922
0.094248	33.295	33.295
0.094248	38.763	38.763
0.094248	40.288	40.288
0.094248	43.816	43.816
0.094248	48.293	48.293
0.094248	49.843	49.843
0.094248	54.534	54.534
0.094248	58.206	58.206
0.094248	61.316	61.316
0.094248	66.075	66.075
0.094248	67.827	67.827
0.094248	73.715	73.715
0.094248	77.423	77.423
0.094248	79.926	79.926
0.094248	86.882	86.882
0.094248	87.904	87.904
0.094248	92.971	92.971
0.094248	99.019	99.019
0.094248	100.10	100.10
0.094248	106.84	106.84
0.094248	108.79	108.79
0.094248	113.41	113.41
0.094248	119.87	119.87
0.094248	122.54	122.54
0.094248	127.17	127.17
0.094248	133.63	133.63
0.094248	135.60	135.60
0.094248	140.26	140.26
0.094248	147.07	147.07
0.094248	147.98	147.98
0.094248	153.62	153.62
0.12566	7.5521	7.5521
0.12566	9.3974	9.3974
0.12566	10.009	10.009
0.12566	10.143	10.143
0.12566	10.707	10.707
0.12566	11.767	11.767
0.12566	13.804	13.804
0.12566	16.916	16.916
0.12566	18.483	18.483
0.12566	19.848	19.848
0.12566	20.013	20.013
0.12566	20.265	20.265
0.12566	21.162	21.162
0.12566	22.579	22.579
0.12566	24.587	24.587
0.12566	25.916	25.916
0.12566	29.348	29.348
0.12566	29.797	29.797
0.12566	33.788	33.788
0.12566	34.781	34.781
0.12566	39.291	39.291
0.12566	41.742	41.742
0.12566	44.357	44.357
0.12566	49.046	49.046
0.12566	50.631	50.631
0.12566	54.860	54.860
0.12566	59.020	59.020
0.12566	61.575	61.575
0.12566	66.830	66.830
0.12566	67.990	67.990
0.12566	73.891	73.891
0.12566	78.022	78.022
0.12566	80.172	80.172
0.12566	87.144	87.144
0.12566	88.286	88.286
0.12566	93.086	93.086
0.12566	99.485	99.485
0.12566	100.22	100.22
0.12566	106.94	106.94
0.12566	109.20	109.20
0.12566	113.52	113.52
0.12566	120.00	120.00
0.12566	122.96	122.96
0.12566	127.25	127.25
0.12566	133.72	133.72
0.12566	135.87	135.87
0.12566	140.36	140.36
0.12566	147.15	147.15
0.12566	148.32	148.32
0.12566	153.69	153.69
0.15708	8.8348	8.8348
0.15708	10.781	10.781
0.15708	12.506	12.506
0.15708	12.573	12.573
0.15708	12.870	12.870
0.15708	13.656	13.656
0.15708	15.335	15.335
0.15708	18.212	18.212
0.15708	21.111	21.111
0.15708	21.470	21.470
0.15708	24.752	24.752
0.15708	25.010	25.010
0.15708	25.180	25.180
0.15708	25.826	25.826
0.15708	27.287	27.287
0.15708	28.433	28.433
0.15708	30.837	30.837
0.15708	31.980	31.980
0.15708	34.773	34.773
0.15708	36.869	36.869
0.15708	40.017	40.017
0.15708	43.330	43.330
0.15708	45.252	45.252
0.15708	49.687	49.687
0.15708	51.937	51.937
0.15708	55.296	55.296
0.15708	60.044	60.044
0.15708	61.920	61.920
0.15708	67.805	67.805
0.15708	68.209	68.209
0.15708	74.124	74.124
0.15708	78.721	78.721
0.15708	80.552	80.552
0.15708	87.397	87.397
0.15708	88.856	88.856
0.15708	93.239	93.239
0.15708	100.05	100.05
0.15708	100.41	100.41
0.15708	107.08	107.08
0.15708	109.71	109.71
0.15708	113.67	113.67
0.15708	120.16	120.16
0.15708	123.50	123.50
0.15708	127.37	127.37
0.15708	133.83	133.83
0.15708	136.22	136.22
0.15708	140.50	140.50
0.15708	147.26	147.26
0.15708	148.75	148.75
0.15708	153.77	153.77
0.18850	9.8725	9.8725
0.18850	12.189	12.189
0.18850	14.838	14.838
0.18850	15.008	15.008
0.18850	15.155	15.155
0.18850	15.789	15.789
0.18850	17.141	17.141
0.18850	19.616	19.616
0.18850	22.565	22.565
0.18850	23.570	23.570
0.18850	26.365	26.365
0.18850	29.652	29.652
0.18850	30.009	30.009
0.18850	30.108	30.108
0.18850	30.730	30.730
0.18850	31.350	31.350
0.18850	33.370	33.370
0.18850	34.305	34.305
0.18850	36.608	36.608
0.18850	39.048	39.048
0.18850	41.203	41.203
0.18850	44.673	44.673
0.18850	46.840	46.840
0.18850	50.321	50.321
0.18850	53.615	53.615
0.18850	55.874	55.874
0.18850	61.269	61.269
0.18850	62.364	62.364
0.18850	68.463	68.463
0.18850	69.025	69.025
0.18850	74.421	74.421
0.18850	79.429	79.429
0.18850	81.152	81.152
0.18850	87.645	87.645
0.18850	89.609	89.609
0.18850	93.437	93.437
0.18850	100.51	100.51
0.18850	100.86	100.86
0.18850	107.25	107.25
0.18850	110.33	110.33
0.18850	113.86	113.86
0.18850	120.37	120.37
0.18850	124.13	124.13
0.18850	127.51	127.51
0.18850	133.98	133.98
0.18850	136.64	136.64
0.18850	140.68	140.68
0.18850	147.39	147.39
0.18850	149.27	149.27
0.18850	153.87	153.87
0.21991	10.761	10.761
0.21991	13.606	13.606
0.21991	16.837	16.837
0.21991	17.507	17.507
0.21991	17.605	17.605
0.21991	18.084	18.084
0.21991	19.145	19.145
0.21991	21.148	21.148
0.21991	23.877	23.877
0.21991	25.619	25.619
0.21991	27.787	27.787
0.21991	30.993	30.993
0.21991	34.378	34.378
0.21991	35.008	35.008
0.21991	35.124	35.124
0.21991	35.254	35.254
0.21991	36.279	36.279
0.21991	37.307	37.307
0.21991	39.307	39.307
0.21991	41.010	41.010
0.21991	43.338	43.338
0.21991	45.850	45.850
0.21991	49.033	49.033
0.21991	51.096	51.096
0.21991	55.409	55.409
0.21991	56.727	56.727
0.21991	62.637	62.637
0.21991	62.981	62.981
0.21991	68.802	68.802
0.21991	70.439	70.439
0.21991	74.798	74.798
0.21991	80.050	80.050
0.21991	82.060	82.060
0.21991	87.902	87.902
0.21991	90.523	90.523
0.21991	93.685	93.685
0.21991	100.78	100.78
0.21991	101.64	101.64
0.21991	107.46	107.46
0.21991	111.04	111.04
0.21991	114.11	114.11
0.21991	120.62	120.62
0.21991	124.86	124.86
0.21991	127.69	127.69
0.21991	134.15	134.15
0.21991	137.12	137.12
0.21991	140.90	140.90
0.21991	147.55	147.55
0.21991	149.88	149.88
0.21991	153.99	153.99
0.25133	11.573	11.573
0.25133	15.002	15.002
0.25133	18.696	18.696
0.25133	20.007	20.007
0.25133	20.086	20.086
0.25133	20.457	20.457
0.25133	21.271	21.271
0.25133	22.798	22.798
0.25133	25.297	25.297
0.25133	27.482	27.482
0.25133	29.331	29.331
0.25133	32.156	32.156
0.25133	35.975	35.975
0.25133	38.792	38.792
0.25133	40.011	40.011
0.25133	40.054	40.054
0.25133	40.230	40.230
0.25133	40.708	40.708
0.25133	42.190	42.190
0.25133	43.842	43.842
0.25133	45.859	45.859
0.25133	47.525	47.525
0.25133	51.262	51.262
0.25133	52.355	52.355
0.25133	56.823	56.823
0.25133	58.284	58.284
0.25133	63.542	63.542
0.25133	64.420	64.420
0.25133	69.222	69.222
0.25133	72.029	72.029
0.25133	75.302	75.302
0.25133	80.597	80.597
0.25133	83.258	83.258
0.25133	88.182	88.182
0.25133	91.570	91.570
0.25133	94.001	94.001
0.25133	101.07	101.07
0.25133	102.55	102.55
0.25133	107.72	107.72
0.25133	111.81	111.81
0.25133	114.45	114.45
0.25133	120.91	120.91
0.25133	125.66	125.66
0.25133	127.93	127.93
0.25133	134.36	134.36
0.25133	137.66	137.66
0.25133	141.16	141.16
0.25133	147.74	147.74
0.25133	150.57	150.57
0.25133	154.13	154.13
0.28274	12.345	12.345
0.28274	16.364	16.364
0.28274	20.437	20.437
0.28274	22.507	22.507
0.28274	22.573	22.573
0.28274	22.857	22.857
0.28274	23.449	23.449
0.28274	24.569	24.569
0.28274	26.849	26.849
0.28274	29.220	29.220
0.28274	31.009	31.009
0.28274	33.428	33.428
0.28274	37.194	37.194
0.28274	41.443	41.443
0.28274	41.821	41.821
0.28274	45.011	45.011
0.28274	45.107	45.107
0.28274	45.393	45.393
0.28274	45.961	45.961
0.28274	46.811	46.811
0.28274	48.771	48.771
0.28274	50.051	50.051
0.28274	53.067	53.067
0.28274	54.597	54.597
0.28274	58.049	58.049
0.28274	60.345	60.345
0.28274	64.458	64.458
0.28274	66.272	66.272
0.28274	69.770	69.770
0.28274	73.649	73.649
0.28274	76.072	76.072
0.28274	81.132	81.132
0.28274	84.674	84.674
0.28274	88.494	88.494
0.28274	92.699	92.699
0.28274	94.427	94.427
0.28274	101.41	101.41
0.28274	103.53	103.53
0.28274	108.04	108.04
0.28274	112.59	112.59
0.28274	114.91	114.91
0.28274	121.26	121.26
0.28274	126.50	126.50
0.28274	128.24	128.24
0.28274	134.60	134.60
0.28274	138.25	138.25
0.28274	141.48	141.48
0.28274	147.95	147.95
0.28274	151.33	151.33
0.28274	154.31	154.31
0.31416	13.096	13.096
0.31416	17.689	17.689
0.31416	22.068	22.068
0.31416	25.006	25.006
0.31416	25.054	25.054
0.31416	25.224	25.224
0.31416	25.619	25.619
0.31416	26.501	26.501
0.31416	28.536	28.536
0.31416	30.915	30.915
0.31416	32.767	32.767
0.31416	34.838	34.838
0.31416	38.378	38.378
0.31416	42.544	42.544
0.31416	44.388	44.388
0.31416	47.356	47.356
0.31416	50.012	50.012
0.31416	50.102	50.102
0.31416	50.405	50.405
0.31416	50.930	50.930
0.31416	51.998	51.998
0.31416	53.032	53.032
0.31416	55.502	55.502
0.31416	56.947	56.947
0.31416	59.758	59.758
0.31416	62.381	62.381
0.31416	65.740	65.740
0.31416	68.233	68.233
0.31416	70.601	70.601
0.31416	74.968	74.968
0.31416	77.439	77.439
0.31416	81.704	81.704
0.31416	86.256	86.256
0.31416	88.845	88.845
0.31416	93.764	93.764
0.31416	95.101	95.101
0.31416	101.81	101.81
0.31416	104.58	104.58
0.31416	108.45	108.45
0.31416	113.32	113.32
0.31416	115.56	115.56
0.31416	121.67	121.67
0.31416	127.28	127.28
0.31416	128.72	128.72
0.31416	134.89	134.89
0.31416	138.88	138.88
0.31416	141.88	141.88
0.31416	148.18	148.18
0.31416	152.16	152.16
0.31416	154.51	154.51
0.34558	13.835	13.835
0.34558	18.977	18.977
0.34558	23.608	23.608
0.34558	27.253	27.253
0.34558	27.508	27.508
0.34558	27.588	27.588
0.34558	27.902	27.902
0.34558	28.638	28.638
0.34558	30.357	30.357
0.34558	32.641	32.641
0.34558	34.551	34.551
0.34558	36.375	36.375
0.34558	39.567	39.567
0.34558	43.592	43.592
0.34558	46.789	46.789
0.34558	48.519	48.519
0.34558	52.975	52.975
0.34558	55.012	55.012
0.34558	55.103	55.103
0.34558	55.301	55.301
0.34558	56.056	56.056
0.34558	56.694	56.694
0.34558	58.195	58.195
0.34558	59.519	59.519
0.34558	62.227	62.227
0.34558	64.215	64.215
0.34558	67.573	67.573
0.34558	69.888	69.888
0.34558	72.167	72.167
0.34558	75.915	75.915
0.34558	79.469	79.469
0.34558	82.350	82.350
0.34558	87.965	87.965
0.34558	89.251	89.251
0.34558	94.563	94.563
0.34558	96.214	96.214
0.34558	102.30	102.30
0.34558	105.65	105.65
0.34558	108.97	108.97
0.34558	113.93	113.93
0.34558	116.43	116.43
0.34558	122.16	122.16
0.34558	127.89	127.89
0.34558	129.46	129.46
0.34558	135.23	135.23
0.34558	139.53	139.53
0.34558	142.37	142.37
0.34558	148.44	148.44
0.34558	153.03	153.03
0.34558	154.77	154.77
0.37699	14.566	14.566
0.37699	20.231	20.231
0.37699	25.083	25.083
0.37699	29.030	29.030
0.37699	30.008	30.008
0.37699	30.077	30.077
0.37699	30.324	30.324
0.37699	30.919	30.919
0.37699	32.299	32.299
0.37699	34.434	34.434
0.37699	36.327	36.327
0.37699	38.008	38.008
0.37699	40.775	40.775
0.37699	44.719	44.719
0.37699	48.735	48.735
0.37699	49.960	49.960
0.37699	54.279	54.279
0.37699	58.649	58.649
0.37699	59.925	59.925
0.37699	60.021	60.021
0.37699	60.173	60.173
0.37699	60.482	60.482
0.37699	61.684	61.684
0.37699	62.849	62.849
0.37699	64.932	64.932
0.37699	66.339	66.339
0.37699	69.779	69.779
0.37699	71.255	71.255
0.37699	74.567	74.567
0.37699	76.828	76.828
0.37699	81.830	81.830
0.37699	83.140	83.140
0.37699	89.615	89.615
0.37699	89.885	89.885
0.37699	95.211	95.211
0.37699	97.633	97.633
0.37699	102.89	102.89
0.37699	106.68	106.68
0.37699	109.66	109.66
0.37699	114.47	114.47
0.37699	117.48	117.48
0.37699	122.73	122.73
0.37699	128.37	128.37
0.37699	130.43	130.43
0.37699	135.63	135.63
0.37699	140.17	140.17
0.37699	142.99	142.99
0.37699	148.73	148.73
0.37699	153.90	153.90
0.37699	155.11	155.11
0.40841	15.295	15.295
0.40841	21.455	21.455
0.40841	26.512	26.512
0.40841	30.659	30.659
0.40841	32.508	32.508
0.40841	32.575	32.575
0.40841	32.780	32.780
0.40841	33.262	33.262
0.40841	34.339	34.339
0.40841	36.299	36.299
0.40841	38.071	38.071
0.40841	39.696	39.696
0.40841	42.028	42.028
0.40841	45.950	45.950
0.40841	50.027	50.027
0.40841	51.959	51.959
0.40841	55.537	55.537
0.40841	59.950	59.950
0.40841	62.948	62.948
0.40841	65.014	65.014
0.40841	65.115	65.115
0.40841	65.148	65.148
0.40841	65.588	65.588
0.40841	66.215	66.215
0.40841	68.209	68.209
0.40841	69.086	69.086
0.40841	71.876	71.876
0.40841	73.243	73.243
0.40841	77.055	77.055
0.40841	78.228	78.228
0.40841	83.767	83.767
0.40841	84.688	84.688
0.40841	90.274	90.274
0.40841	91.682	91.682
0.40841	95.905	95.905
0.40841	99.142	99.142
0.40841	103.65	103.65
0.40841	107.62	107.62
0.40841	110.61	110.61
0.40841	114.97	114.97
0.40841	118.64	118.64
0.40841	123.42	123.42
0.40841	128.80	128.80
0.40841	131.50	131.50
0.40841	136.12	136.12
0.40841	140.78	140.78
0.40841	143.75	143.75
0.40841	149.04	149.04
0.40841	154.65	154.65
0.40841	155.68	155.68
0.43982	16.024	16.024
0.43982	22.653	22.653
0.43982	27.911	27.911
0.43982	32.210	32.210
0.43982	35.008	35.008
0.43982	35.074	35.074
0.43982	35.244	35.244
0.43982	35.623	35.623
0.43982	36.451	36.451
0.43982	38.220	38.220
0.43982	39.777	39.777
0.43982	41.385	41.385
0.43982	43.386	43.386
0.43982	47.287	47.287
0.43982	51.136	51.136
0.43982	54.071	54.071
0.43982	56.839	56.839
0.43982	61.084	61.084
0.43982	65.117	65.117
0.43982	67.020	67.020
0.43982	70.013	70.013
0.43982	70.136	70.136
0.43982	70.349	70.349
0.43982	70.559	70.559
0.43982	71.424	71.424
0.43982	72.368	72.368
0.43982	74.620	74.620
0.43982	75.588	75.588
0.43982	79.066	79.066
0.43982	80.721	80.721
0.43982	85.093	85.093
0.43982	87.161	87.161
0.43982	91.083	91.083
0.43982	93.525	93.525
0.43982	96.800	96.800
0.43982	100.59	100.59
0.43982	104.66	104.66
0.43982	108.44	108.44
0.43982	111.82	111.82
0.43982	115.50	115.50
0.43982	119.81	119.81
0.43982	124.26	124.26
0.43982	129.25	129.25
0.43982	132.59	132.59
0.43982	136.72	136.72
0.43982	141.36	141.36
0.43982	144.66	144.66
0.43982	149.38	149.38
0.43982	155.15	155.15
0.43982	156.57	156.57
0.47124	16.756	16.756
0.47124	23.833	23.833
0.47124	29.285	29.285
0.47124	33.716	33.716
0.47124	37.507	37.507
0.47124	37.564	37.564
0.47124	37.694	37.694
0.47124	37.968	37.968
0.47124	38.618	38.618
0.47124	40.157	40.157
0.47124	41.462	41.462
0.47124	43.019	43.019
0.47124	44.927	44.927
0.47124	48.712	48.712
0.47124	52.261	52.261
0.47124	56.094	56.094
0.47124	58.228	58.228
0.47124	62.201	62.201
0.47124	66.727	66.727
0.47124	68.766	68.766
0.47124	72.124	72.124
0.47124	75.012	75.012
0.47124	75.129	75.129
0.47124	75.281	75.281
0.47124	75.772	75.772
0.47124	76.241	76.241
0.47124	77.499	77.499
0.47124	78.447	78.447
0.47124	81.689	81.689
0.47124	83.249	83.249
0.47124	87.001	87.001
0.47124	89.371	89.371
0.47124	92.413	92.413
0.47124	95.170	95.170
0.47124	98.133	98.133
0.47124	101.86	101.86
0.47124	106.00	106.00
0.47124	109.20	109.20
0.47124	113.23	113.23
0.47124	116.11	116.11
0.47124	120.92	120.92
0.47124	125.27	125.27
0.47124	129.77	129.77
0.47124	133.63	133.63
0.47124	137.48	137.48
0.47124	141.91	141.91
0.47124	145.73	145.73
0.47124	149.75	149.75
0.47124	155.56	155.56
0.47124	157.63	157.63
0.50265	17.492	17.492
0.50265	24.997	24.997
0.50265	30.637	30.637
0.50265	35.198	35.198
0.50265	39.917	39.917
0.50265	40.011	40.011
0.50265	40.117	40.117
0.50265	40.326	40.326
0.50265	40.855	40.855
0.50265	42.067	42.067
0.50265	43.182	43.182
0.50265	44.613	44.613
0.50265	46.676	46.676
0.50265	50.201	50.201
0.50265	53.459	53.459
0.50265	57.941	57.941
0.50265	59.747	59.747
0.50265	63.347	63.347
0.50265	68.031	68.031
0.50265	70.593	70.593
0.50265	73.231	73.231
0.50265	77.917	77.917
0.50265	79.714	79.714
0.50265	80.017	80.017
0.50265	80.204	80.204
0.50265	80.395	80.395
0.50265	81.309	81.309
0.50265	82.431	82.431
0.50265	84.385	84.385
0.50265	85.990	85.990
0.50265	89.526	89.526
0.50265	91.147	91.147
0.50265	94.484	94.484
0.50265	96.556	96.556
0.50265	100.07	100.07
0.50265	102.98	102.98
0.50265	107.60	107.60
0.50265	110.02	110.02
0.50265	114.68	114.68
0.50265	116.95	116.95
0.50265	121.94	121.94
0.50265	126.44	126.44
0.50265	130.40	130.40
0.50265	134.57	134.57
0.50265	138.43	138.43
0.50265	142.45	142.45
0.50265	146.94	146.94
0.50265	150.15	150.15
0.50265	155.96	155.96
0.50265	158.78	158.78
0.53407	18.235	18.235
0.53407	26.150	26.150
0.53407	31.964	31.964
0.53407	36.669	36.669
0.53407	41.845	41.845
0.53407	42.509	42.509
0.53407	42.600	42.600
0.53407	42.773	42.773
0.53407	43.163	43.163
0.53407	43.957	43.957
0.53407	44.985	44.985
0.53407	46.263	46.263
0.53407	48.581	48.581
0.53407	51.727	51.727
0.53407	54.762	54.762
0.53407	59.571	59.571
0.53407	61.404	61.404
0.53407	64.553	64.553
0.53407	69.234	69.234
0.53407	72.368	72.368
0.53407	74.367	74.367
0.53407	79.082	79.082
0.53407	82.802	82.802
0.53407	85.013	85.013
0.53407	85.071	85.071
0.53407	85.226	85.226
0.53407	85.474	85.474
0.53407	86.056	86.056
0.53407	87.785	87.785
0.53407	89.267	89.267
0.53407	91.799	91.799
0.53407	93.463	93.463
0.53407	96.767	96.767
0.53407	98.129	98.129
0.53407	102.41	102.41
0.53407	104.13	104.13
0.53407	109.24	109.24
0.53407	111.08	111.08
0.53407	115.92	115.92
0.53407	118.25	118.25
0.53407	122.88	122.88
0.53407	127.67	127.67
0.53407	131.22	131.22
0.53407	135.41	135.41
0.53407	139.58	139.58
0.53407	143.01	143.01
0.53407	148.27	148.27
0.53407	150.59	150.59
0.53407	156.38	156.38
0.53407	159.95	159.95
0.56549	18.986	18.986
0.56549	27.294	27.294
0.56549	33.264	33.264
0.56549	38.134	38.134
0.56549	43.405	43.405
0.56549	45.008	45.008
0.56549	45.086	45.086
0.56549	45.235	45.235
0.56549	45.456	45.456
0.56549	45.929	45.929
0.56549	46.846	46.846
0.56549	48.080	48.080
0.56549	50.576	50.576
0.56549	53.274	53.274
0.56549	56.190	56.190
0.56549	61.024	61.024
0.56549	63.119	63.119
0.56549	65.851	65.851
0.56549	70.429	70.429
0.56549	73.982	73.982
0.56549	75.647	75.647
0.56549	80.189	80.189
0.56549	85.101	85.101
0.56549	87.087	87.087
0.56549	90.013	90.013
0.56549	90.185	90.185
0.56549	90.407	90.407
0.56549	90.798	90.798
0.56549	91.456	91.456
0.56549	92.332	92.332
0.56549	94.858	94.858
0.56549	95.889	95.889
0.56549	98.990	98.990
0.56549	100.39	100.39
0.56549	104.54	104.54
0.56549	105.91	105.91
0.56549	110.62	110.62
0.56549	112.65	112.65
0.56549	116.89	116.89
0.56549	120.06	120.06
0.56549	123.80	123.80
0.56549	128.82	128.82
0.56549	132.32	132.32
0.56549	136.17	136.17
0.56549	140.90	140.90
0.56549	143.58	143.58
0.56549	149.69	149.69
0.56549	151.08	151.08
0.56549	156.84	156.84
0.56549	161.11	161.11
0.59690	19.746	19.746
0.59690	28.432	28.432
0.59690	34.532	34.532
0.59690	39.596	39.596
0.59690	44.724	44.724
0.59690	47.303	47.303
0.59690	47.509	47.509
0.59690	47.618	47.618
0.59690	47.794	47.794
0.59690	48.126	48.126
0.59690	48.793	48.793
0.59690	50.094	50.094
0.59690	52.610	52.610
0.59690	54.843	54.843
0.59690	57.748	57.748
0.59690	62.363	62.363
0.59690	64.789	64.789
0.59690	67.275	67.275
0.59690	71.657	71.657
0.59690	75.377	75.377
0.59690	77.120	77.120
0.59690	81.365	81.365
0.59690	86.563	86.563
0.59690	89.342	89.342
0.59690	92.545	92.545
0.59690	95.012	95.012
0.59690	95.178	95.178
0.59690	95.434	95.434
0.59690	95.913	95.913
0.59690	96.563	96.563
0.59690	97.652	97.652
0.59690	98.874	98.874
0.59690	101.76	101.76
0.59690	102.78	102.78
0.59690	106.42	106.42
0.59690	108.46	108.46
0.59690	111.95	111.95
0.59690	114.59	114.59
0.59690	117.84	117.84
0.59690	122.15	122.15
0.59690	124.79	124.79
0.59690	129.81	129.81
0.59690	133.75	133.75
0.59690	136.90	136.90
0.59690	142.33	142.33
0.59690	144.19	144.19
0.59690	151.03	151.03
0.59690	151.77	151.77
0.59690	157.36	157.36
0.59690	162.22	162.22
0.62832	20.516	20.516
0.62832	29.564	29.564
0.62832	35.765	35.765
0.62832	41.053	41.053
0.62832	45.923	45.923
0.62832	48.976	48.976
0.62832	50.007	50.007
0.62832	50.088	50.088
0.62832	50.259	50.259
0.62832	50.436	50.436
0.62832	50.923	50.923
0.62832	52.247	52.247
0.62832	54.638	54.638
0.62832	56.466	56.466
0.62832	59.424	59.424
0.62832	63.628	63.628
0.62832	66.361	66.361
0.62832	68.830	68.830
0.62832	72.941	72.941
0.62832	76.614	76.614
0.62832	78.711	78.711
0.62832	82.658	82.658
0.62832	87.674	87.674
0.62832	91.448	91.448
0.62832	93.999	93.999
0.62832	98.066	98.066
0.62832	100.01	100.01
0.62832	100.17	100.17
0.62832	100.48	100.48
0.62832	100.75	100.75
0.62832	101.74	101.74
0.62832	102.47	102.47
0.62832	104.48	104.48
0.62832	105.42	105.42
0.62832	108.88	108.88
0.62832	110.93	110.93
0.62832	113.77	113.77
0.62832	116.59	116.59
0.62832	119.04	119.04
0.62832	124.14	124.14
0.62832	126.12	126.12
0.62832	130.70	130.70
0.62832	135.42	135.42
0.62832	137.63	137.63
0.62832	143.83	143.83
0.62832	144.89	144.89
0.62832	151.88	151.88
0.62832	153.08	153.08
0.62832	157.97	157.97
0.62832	163.24	163.24
0.65973	21.296	21.296
0.65973	30.691	30.691
0.65973	36.961	36.961
0.65973	42.503	42.503
0.65973	47.073	47.073
0.65973	50.466	50.466
0.65973	52.455	52.455
0.65973	52.511	52.511
0.65973	52.656	52.656
0.65973	52.851	52.851
0.65973	53.239	53.239
0.65973	54.478	54.478
0.65973	56.605	56.605
0.65973	58.205	58.205
0.65973	61.194	61.194
0.65973	64.839	64.839
0.65973	67.845	67.845
0.65973	70.480	70.480
0.65973	74.297	74.297
0.65973	77.784	77.784
0.65973	80.325	80.325
0.65973	84.089	84.089
0.65973	88.685	88.685
0.65973	92.991	92.991
0.65973	95.977	95.977
0.65973	98.997	98.997
0.65973	104.29	104.29
0.65973	105.01	105.01
0.65973	105.14	105.14
0.65973	105.39	105.39
0.65973	105.60	105.60
0.65973	106.06	106.06
0.65973	107.44	107.44
0.65973	109.30	109.30
0.65973	111.13	111.13
0.65973	113.70	113.70
0.65973	116.03	116.03
0.65973	118.58	118.58
0.65973	120.75	120.75
0.65973	125.69	125.69
0.65973	128.12	128.12
0.65973	131.60	131.60
0.65973	137.23	137.23
0.65973	138.42	138.42
0.65973	145.18	145.18
0.65973	145.88	145.88
0.65973	152.53	152.53
0.65973	154.64	154.64
0.65973	158.71	158.71
0.65973	164.15	164.15
0.69115	22.086	22.086
0.69115	31.811	31.811
0.69115	38.121	38.121
0.69115	43.943	43.943
0.69115	48.215	48.215
0.69115	51.872	51.872
0.69115	54.594	54.594
0.69115	55.008	55.008
0.69115	55.123	55.123
0.69115	55.354	55.354
0.69115	55.650	55.650
0.69115	56.745	56.745
0.69115	58.485	58.485
0.69115	60.112	60.112
0.69115	63.025	63.025
0.69115	66.023	66.023
0.69115	69.275	69.275
0.69115	72.169	72.169
0.69115	75.733	75.733
0.69115	78.937	78.937
0.69115	81.916	81.916
0.69115	85.652	85.652
0.69115	89.669	89.669
0.69115	94.161	94.161
0.69115	98.278	98.278
0.69115	99.859	99.859
0.69115	105.85	105.85
0.69115	107.63	107.63
0.69115	110.01	110.01
0.69115	110.19	110.19
0.69115	110.60	110.60
0.69115	110.92	110.92
0.69115	111.60	111.60
0.69115	112.33	112.33
0.69115	114.19	114.19
0.69115	116.81	116.81
0.69115	118.16	118.16
0.69115	121.02	121.02
0.69115	122.87	122.87
0.69115	127.13	127.13
0.69115	130.48	130.48
0.69115	132.63	132.63
0.69115	139.01	139.01
0.69115	139.37	139.37
0.69115	146.14	146.14
0.69115	147.39	147.39
0.69115	153.23	153.23
0.69115	156.17	156.17
0.69115	159.67	159.67
0.69115	164.97	164.97
0.72257	22.886	22.886
0.72257	32.925	32.925
0.72257	39.244	39.244
0.72257	45.366	45.366
0.72257	49.372	49.372
0.72257	53.232	53.232
0.72257	56.619	56.619
0.72257	57.508	57.508
0.72257	57.611	57.611
0.72257	57.871	57.871
0.72257	58.095	58.095
0.72257	59.009	59.009
0.72257	60.336	60.336
0.72257	62.167	62.167
0.72257	64.871	64.871
0.72257	67.221	67.221
0.72257	70.682	70.682
0.72257	73.854	73.854
0.72257	77.246	77.246
0.72257	80.106	80.106
0.72257	83.479	83.479
0.72257	87.318	87.318
0.72257	90.668	90.668
0.72257	95.223	95.223
0.72257	100.48	100.48
0.72257	100.86	100.86
0.72257	106.83	106.83
0.72257	110.02	110.02
0.72257	112.88	112.88
0.72257	115.01	115.01
0.72257	115.17	115.17
0.72257	115.67	115.67
0.72257	115.87	115.87
0.72257	116.96	116.96
0.72257	117.94	117.94
0.72257	119.15	119.15
0.72257	121.03	121.03
0.72257	123.88	123.88
0.72257	125.14	125.14
0.72257	128.90	128.90
0.72257	132.75	132.75
0.72257	134.06	134.06
0.72257	140.29	140.29
0.72257	140.99	140.99
0.72257	147.10	147.10
0.72257	149.05	149.05
0.72257	154.03	154.03
0.72257	157.54	157.54
0.72257	160.93	160.93
0.72257	165.74	165.74
0.75398	23.696	23.696
0.75398	34.029	34.029
0.75398	40.334	40.334
0.75398	46.768	46.768
0.75398	50.554	50.554
0.75398	54.569	54.569
0.75398	58.541	58.541
0.75398	60.008	60.008
0.75398	60.102	60.102
0.75398	60.384	60.384
0.75398	60.549	60.549
0.75398	61.219	61.219
0.75398	62.284	62.284
0.75398	64.311	64.311
0.75398	66.657	66.657
0.75398	68.511	68.511
0.75398	72.080	72.080
0.75398	75.510	75.510
0.75398	78.824	78.824
0.75398	81.315	81.315
0.75398	85.021	85.021
0.75398	89.032	89.032
0.75398	91.729	91.729
0.75398	96.269	96.269
0.75398	101.50	101.50
0.75398	103.01	103.01
0.75398	107.70	107.70
0.75398	112.39	112.39
0.75398	113.88	113.88
0.75398	119.36	119.36
0.75398	120.01	120.01
0.75398	120.16	120.16
0.75398	120.69	120.69
0.75398	120.84	120.84
0.75398	121.72	121.72
0.75398	122.90	122.90
0.75398	124.25	124.25
0.75398	126.04	126.04
0.75398	128.41	128.41
0.75398	130.86	130.86
0.75398	134.97	134.97
0.75398	135.95	135.95
0.75398	141.63	141.63
0.75398	142.77	142.77
0.75398	148.23	148.23
0.75398	150.67	150.67
0.75398	155.02	155.02
0.75398	158.73	158.73
0.75398	162.50	162.50
0.75398	166.53	166.53
0.78540	24.516	24.516
0.78540	35.122	35.122
0.78540	41.396	41.396
0.78540	48.143	48.143
0.78540	51.766	51.766
0.78540	55.897	55.897
0.78540	60.347	60.347
0.78540	62.507	62.507
0.78540	62.587	62.587
0.78540	62.840	62.840
0.78540	63.009	63.009
0.78540	63.379	63.379
0.78540	64.418	64.418
0.78540	66.487	66.487
0.78540	68.279	68.279
0.78540	70.018	70.018
0.78540	73.480	73.480
0.78540	77.130	77.130
0.78540	80.444	80.444
0.78540	82.589	82.589
0.78540	86.546	86.546
0.78540	90.709	90.709
0.78540	92.933	92.933
0.78540	97.327	97.327
0.78540	102.39	102.39
0.78540	105.24	105.24
0.78540	108.55	108.55
0.78540	114.34	114.34
0.78540	115.26	115.26
0.78540	120.35	120.35
0.78540	124.91	124.91
0.78540	125.01	125.01
0.78540	125.25	125.25
0.78540	125.85	125.85
0.78540	126.00	126.00
0.78540	126.41	126.41
0.78540	127.26	127.26
0.78540	129.16	129.16
0.78540	132.08	132.08
0.78540	132.83	132.83
0.78540	137.42	137.42
0.78540	138.10	138.10
0.78540	143.28	143.28
0.78540	144.50	144.50
0.78540	149.60	149.60
0.78540	152.19	152.19
0.78540	156.23	156.23
0.78540	159.83	159.83
0.78540	164.26	164.26
0.78540	167.39	167.39
0.81681	25.344	25.344
0.81681	36.202	36.202
0.81681	42.437	42.437
0.81681	49.487	49.487
0.81681	53.009	53.009
0.81681	57.225	57.225
0.81681	62.038	62.038
0.81681	64.965	64.965
0.81681	65.011	65.011
0.81681	65.154	65.154
0.81681	65.500	65.500
0.81681	65.682	65.682
0.81681	66.699	66.699
0.81681	68.606	68.606
0.81681	69.768	69.768
0.81681	71.778	71.778
0.81681	74.894	74.894
0.81681	78.711	78.711
0.81681	82.083	82.083
0.81681	83.947	83.947
0.81681	88.049	88.049
0.81681	92.246	92.246
0.81681	94.384	94.384
0.81681	98.399	98.399
0.81681	103.31	103.31
0.81681	107.37	107.37
0.81681	109.40	109.40
0.81681	115.41	115.41
0.81681	117.54	117.54
0.81681	121.29	121.29
0.81681	127.39	127.39
0.81681	127.80	127.80
0.81681	130.01	130.01
0.81681	130.17	130.17
0.81681	130.84	130.84
0.81681	131.00	131.00
0.81681	132.08	132.08
0.81681	132.81	132.81
0.81681	134.52	134.52
0.81681	136.34	136.34
0.81681	139.49	139.49
0.81681	141.00	141.00
0.81681	145.11	145.11
0.81681	146.33	146.33
0.81681	151.21	151.21
0.81681	153.66	153.66
0.81681	157.66	157.66
0.81681	161.00	161.00
0.81681	166.06	166.06
0.81681	168.41	168.41
0.84823	26.181	26.181
0.84823	37.266	37.266
0.84823	43.462	43.462
0.84823	50.797	50.797
0.84823	54.280	54.280
0.84823	58.561	58.561
0.84823	63.628	63.628
0.84823	67.014	67.014
0.84823	67.508	67.508
0.84823	67.612	67.612
0.84823	67.997	67.997
0.84823	68.147	68.147
0.84823	69.039	69.039
0.84823	70.411	70.411
0.84823	71.490	71.490
0.84823	73.676	73.676
0.84823	76.341	76.341
0.84823	80.260	80.260
0.84823	83.725	83.725
0.84823	85.400	85.400
0.84823	89.519	89.519
0.84823	93.627	93.627
0.84823	96.111	96.111
0.84823	99.482	99.482
0.84823	104.27	104.27
0.84823	109.40	109.40
0.84823	110.28	110.28
0.84823	116.33	116.33
0.84823	119.94	119.94
0.84823	122.29	122.29
0.84823	128.29	128.29
0.84823	130.11	130.11
0.84823	134.48	134.48
0.84823	135.01	135.01
0.84823	135.17	135.17
0.84823	135.84	135.84
0.84823	136.09	136.09
0.84823	136.97	136.97
0.84823	138.70	138.70
0.84823	139.03	139.03
0.84823	142.35	142.35
0.84823	143.89	143.89
0.84823	146.95	146.95
0.84823	148.56	148.56
0.84823	152.90	152.90
0.84823	155.29	155.29
0.84823	159.20	159.20
0.84823	162.34	162.34
0.84823	167.72	167.72
0.84823	169.72	169.72
0.87965	27.025	27.025
0.87965	38.314	38.314
0.87965	44.479	44.479
0.87965	52.070	52.070
0.87965	55.575	55.575
0.87965	59.908	59.908
0.87965	65.137	65.137
0.87965	68.960	68.960
0.87965	70.008	70.008
0.87965	70.101	70.101
0.87965	70.477	70.477
0.87965	70.667	70.667
0.87965	71.298	71.298
0.87965	71.950	71.950
0.87965	73.590	73.590
0.87965	75.602	75.602
0.87965	77.857	77.857
0.87965	81.784	81.784
0.87965	85.364	85.364
0.87965	86.941	86.941
0.87965	90.941	90.941
0.87965	94.951	94.951
0.87965	98.021	98.021
0.87965	100.57	100.57
0.87965	105.30	105.30
0.87965	111.05	111.05
0.87965	111.47	111.47
0.87965	117.26	117.26
0.87965	122.10	122.10
0.87965	123.57	123.57
0.87965	129.10	129.10
0.87965	132.18	132.18
0.87965	135.94	135.94
0.87965	140.01	140.01
0.87965	140.11	140.11
0.87965	140.25	140.25
0.87965	140.85	140.85
0.87965	141.20	141.20
0.87965	142.14	142.14
0.87965	143.28	143.28
0.87965	145.98	145.98
0.87965	146.16	146.16
0.87965	149.21	149.21
0.87965	151.19	151.19
0.87965	154.58	154.58
0.87965	157.22	157.22
0.87965	160.81	160.81
0.87965	163.89	163.89
0.87965	169.23	169.23
0.87965	169.40	169.40
0.91106	27.877	27.877
0.91106	39.341	39.341
0.91106	45.494	45.494
0.91106	53.308	53.308
0.91106	56.885	56.885
0.91106	61.270	61.270
0.91106	66.583	66.583
0.91106	70.835	70.835
0.91106	72.508	72.508
0.91106	72.584	72.584
0.91106	72.790	72.790
0.91106	73.092	73.092
0.91106	73.234	73.234
0.91106	74.039	74.039
0.91106	75.790	75.790
0.91106	77.483	77.483
0.91106	79.497	79.497
0.91106	83.298	83.298
0.91106	87.006	87.006
0.91106	88.550	88.550
0.91106	92.306	92.306
0.91106	96.311	96.311
0.91106	100.01	100.01
0.91106	101.69	101.69
0.91106	106.38	106.38
0.91106	112.02	112.02
0.91106	113.29	113.29
0.91106	118.21	118.21
0.91106	123.55	123.55
0.91106	125.54	125.54
0.91106	129.91	129.91
0.91106	133.93	133.93
0.91106	137.62	137.62
0.91106	141.42	141.42
0.91106	145.01	145.01
0.91106	145.15	145.15
0.91106	145.75	145.75
0.91106	146.31	146.31
0.91106	146.95	146.95
0.91106	147.05	147.05
0.91106	148.30	148.30
0.91106	149.46	149.46
0.91106	152.42	152.42
0.91106	153.55	153.55
0.91106	156.78	156.78
0.91106	159.24	159.24
0.91106	162.67	162.67
0.91106	165.53	165.53
0.91106	168.25	168.25
0.91106	170.81	170.81
0.94248	28.736	28.736
0.94248	40.348	40.348
0.94248	46.512	46.512
0.94248	54.510	54.510
0.94248	58.205	58.205
0.94248	62.646	62.646
0.94248	67.981	67.981
0.94248	72.609	72.609
0.94248	74.272	74.272
0.94248	75.008	75.008
0.94248	75.097	75.097
0.94248	75.489	75.489
0.94248	75.776	75.776
0.94248	76.418	76.418
0.94248	77.948	77.948
0.94248	79.319	79.319
0.94248	81.302	81.302
0.94248	84.821	84.821
0.94248	88.653	88.653
0.94248	90.203	90.203
0.94248	93.621	93.621
0.94248	97.746	97.746
0.94248	101.93	101.93
0.94248	102.92	102.92
0.94248	107.54	107.54
0.94248	112.97	112.97
0.94248	115.07	115.07
0.94248	119.21	119.21
0.94248	124.65	124.65
0.94248	127.82	127.82
0.94248	130.77	130.77
0.94248	135.34	135.34
0.94248	139.62	139.62
0.94248	142.44	142.44
0.94248	148.36	148.36
0.94248	150.01	150.01
0.94248	150.10	150.10
0.94248	150.37	150.37
0.94248	151.08	151.08
0.94248	151.45	151.45
0.94248	152.36	152.36
0.94248	153.39	153.39
0.94248	154.87	154.87
0.94248	156.76	156.76
0.94248	159.54	159.54
0.94248	161.29	161.29
0.94248	164.98	164.98
0.94248	167.10	167.10
0.94248	167.17	167.17
0.94248	172.61	172.61
0.97389	29.601	29.601
0.97389	41.333	41.333
0.97389	47.537	47.537
0.97389	55.680	55.680
0.97389	59.528	59.528
0.97389	64.037	64.037
0.97389	69.340	69.340
0.97389	74.247	74.247
0.97389	75.756	75.756
0.97389	77.508	77.508
0.97389	77.591	77.591
0.97389	77.957	77.957
0.97389	78.338	78.338
0.97389	78.804	78.804
0.97389	79.948	79.948
0.97389	81.241	81.241
0.97389	83.251	83.251
0.97389	86.376	86.376
0.97389	90.299	90.299
0.97389	91.879	91.879
0.97389	94.913	94.913
0.97389	99.253	99.253
0.97389	103.43	103.43
0.97389	104.60	104.60
0.97389	108.77	108.77
0.97389	113.95	113.95
0.97389	116.78	116.78
0.97389	120.27	120.27
0.97389	125.67	125.67
0.97389	129.95	129.95
0.97389	131.82	131.82
0.97389	136.56	136.56
0.97389	141.81	141.81
0.97389	143.48	143.48
0.97389	149.37	149.37
0.97389	152.71	152.71
0.97389	155.01	155.01
0.97389	155.15	155.15
0.97389	155.65	155.65
0.97389	155.84	155.84
0.97389	156.59	156.59
0.97389	157.25	157.25
0.97389	158.38	158.38
0.97389	160.62	160.62
0.97389	161.90	161.90
0.97389	164.09	164.09
0.97389	165.96	165.96
0.97389	167.55	167.55
0.97389	168.95	168.95
0.97389	174.53	174.53
1.0053	30.473	30.473
1.0053	42.297	42.297
1.0053	48.573	48.573
1.0053	56.819	56.819
1.0053	60.847	60.847
1.0053	65.440	65.440
1.0053	70.669	70.669
1.0053	75.760	75.760
1.0053	77.314	77.314
1.0053	80.009	80.009
1.0053	80.084	80.084
1.0053	80.408	80.408
1.0053	80.898	80.898
1.0053	81.065	81.065
1.0053	81.855	81.855
1.0053	83.359	83.359
1.0053	85.284	85.284
1.0053	87.987	87.987
1.0053	91.929	91.929
1.0053	93.565	93.565
1.0053	96.220	96.220
1.0053	100.81	100.81
1.0053	104.61	104.61
1.0053	106.62	106.62
1.0053	110.07	110.07
1.0053	114.97	114.97
1.0053	118.39	118.39
1.0053	121.43	121.43
1.0053	126.69	126.69
1.0053	131.52	131.52
1.0053	133.37	133.37
1.0053	137.70	137.70
1.0053	143.79	143.79
1.0053	144.85	144.85
1.0053	150.30	150.30
1.0053	154.59	154.59
1.0053	156.70	156.70
1.0053	160.01	160.01
1.0053	160.14	160.14
1.0053	160.75	160.75
1.0053	161.74	161.74
1.0053	162.08	162.08
1.0053	162.43	162.43
1.0053	163.19	163.19
1.0053	164.82	164.82
1.0053	165.57	165.57
1.0053	167.14	167.14
1.0053	169.94	169.94
1.0053	171.49	171.49
1.0053	174.01	174.01
1.0367	31.349	31.349
1.0367	43.239	43.239
1.0367	49.621	49.621
1.0367	57.931	57.931
1.0367	62.157	62.157
1.0367	66.851	66.851
1.0367	71.976	71.976
1.0367	77.205	77.205
1.0367	78.892	78.892
1.0367	82.507	82.507
1.0367	82.535	82.535
1.0367	82.668	82.668
1.0367	83.100	83.100
1.0367	83.493	83.493
1.0367	84.047	84.047
1.0367	85.596	85.596
1.0367	87.347	87.347
1.0367	89.679	89.679
1.0367	93.534	93.534
1.0367	95.245	95.245
1.0367	97.587	97.587
1.0367	102.36	102.36
1.0367	105.77	105.77
1.0367	108.67	108.67
1.0367	111.47	111.47
1.0367	116.04	116.04
1.0367	119.90	119.90
1.0367	122.69	122.69
1.0367	127.71	127.71
1.0367	132.61	132.61
1.0367	135.32	135.32
1.0367	138.86	138.86
1.0367	145.02	145.02
1.0367	147.03	147.03
1.0367	151.22	151.22
1.0367	156.25	156.25
1.0367	157.79	157.79
1.0367	163.44	163.44
1.0367	163.68	163.68
1.0367	165.02	165.02
1.0367	165.14	165.14
1.0367	165.69	165.69
1.0367	166.85	166.85
1.0367	166.95	166.95
1.0367	167.74	167.74
1.0367	169.12	169.12
1.0367	170.00	170.00
1.0367	172.92	172.92
1.0367	172.92	172.92
1.0367	174.40	174.40
1.0681	32.231	32.231
1.0681	44.161	44.161
1.0681	50.682	50.682
1.0681	59.017	59.017
1.0681	63.456	63.456
1.0681	68.266	68.266
1.0681	73.270	73.270
1.0681	78.628	78.628
1.0681	80.435	80.435
1.0681	84.242	84.242
1.0681	85.010	85.010
1.0681	85.092	85.092
1.0681	85.485	85.485
1.0681	86.071	86.071
1.0681	86.433	86.433
1.0681	87.867	87.867
1.0681	89.403	89.403
1.0681	91.475	91.475
1.0681	95.109	95.109
1.0681	96.902	96.902
1.0681	99.050	99.050
1.0681	103.87	103.87
1.0681	107.00	107.00
1.0681	110.64	110.64
1.0681	113.00	113.00
1.0681	117.16	117.16
1.0681	121.30	121.30
1.0681	124.08	124.08
1.0681	128.74	128.74
1.0681	133.58	133.58
1.0681	137.21	137.21
1.0681	140.16	140.16
1.0681	146.04	146.04
1.0681	149.39	149.39
1.0681	152.22	152.22
1.0681	157.58	157.58
1.0681	159.20	159.20
1.0681	162.55	162.55
1.0681	164.46	164.46
1.0681	169.44	169.44
1.0681	170.02	170.02
1.0681	170.15	170.15
1.0681	170.74	170.74
1.0681	171.83	171.83
1.0681	171.89	171.89
1.0681	172.07	172.07
1.0681	173.00	173.00
1.0681	173.58	173.58
1.0681	176.60	176.60
1.0681	176.95	176.95
1.0996	33.117	33.117
1.0996	45.065	45.065
1.0996	51.755	51.755
1.0996	60.082	60.082
1.0996	64.742	64.742
1.0996	69.679	69.679
1.0996	74.559	74.559
1.0996	80.053	80.053
1.0996	81.916	81.916
1.0996	85.746	85.746
1.0996	87.510	87.510
1.0996	87.585	87.585
1.0996	87.947	87.947
1.0996	88.654	88.654
1.0996	88.855	88.855
1.0996	90.111	90.111
1.0996	91.455	91.455
1.0996	93.385	93.385
1.0996	96.669	96.669
1.0996	98.518	98.518
1.0996	100.63	100.63
1.0996	105.28	105.28
1.0996	108.36	108.36
1.0996	112.44	112.44
1.0996	114.70	114.70
1.0996	118.35	118.35
1.0996	122.61	122.61
1.0996	125.59	125.59
1.0996	129.77	129.77
1.0996	134.55	134.55
1.0996	138.85	138.85
1.0996	141.68	141.68
1.0996	147.04	147.04
1.0996	151.51	151.51
1.0996	153.47	153.47
1.0996	158.62	158.62
1.0996	160.94	160.94
1.0996	161.41	161.41
1.0996	165.46	165.46
1.0996	170.74	170.74
1.0996	170.84	170.84
1.0996	174.56	174.56
1.0996	175.02	175.02
1.0996	175.16	175.16
1.0996	175.85	175.85
1.0996	176.30	176.30
1.0996	177.22	177.22
1.0996	177.32	177.32
1.0996	177.84	177.84
1.0996	178.85	178.85
1.1310	34.007	34.007
1.1310	45.953	45.953
1.1310	52.839	52.839
1.1310	61.126	61.126
1.1310	66.012	66.012
1.1310	71.084	71.084
1.1310	75.852	75.852
1.1310	81.485	81.485
1.1310	83.332	83.332
1.1310	87.231	87.231
1.1310	90.011	90.011
1.1310	90.081	90.081
1.1310	90.414	90.414
1.1310	91.192	91.192
1.1310	91.295	91.295
1.1310	92.278	92.278
1.1310	93.552	93.552
1.1310	95.395	95.395
1.1310	98.248	98.248
1.1310	100.09	100.09
1.1310	102.32	102.32
1.1310	106.59	106.59
1.1310	109.87	109.87
1.1310	114.06	114.06
1.1310	116.56	116.56
1.1310	119.60	119.60
1.1310	123.87	123.87
1.1310	127.18	127.18
1.1310	130.82	130.82
1.1310	135.55	135.55
1.1310	140.21	140.21
1.1310	143.43	143.43
1.1310	148.04	148.04
1.1310	153.04	153.04
1.1310	155.25	155.25
1.1310	159.59	159.59
1.1310	160.28	160.28
1.1310	162.84	162.84
1.1310	166.52	166.52
1.1310	169.65	169.65
1.1310	171.93	171.93
1.1310	175.22	175.22
1.1310	176.87	176.87
1.1310	178.97	178.97
1.1310	180.02	180.02
1.1310	180.15	180.15
1.1310	180.78	180.78
1.1310	182.43	182.43
1.1310	182.53	182.53
1.1310	183.48	183.48
1.1624	34.901	34.901
1.1624	46.827	46.827
1.1624	53.932	53.932
1.1624	62.152	62.152
1.1624	67.268	67.268
1.1624	72.475	72.475
1.1624	77.154	77.154
1.1624	82.920	82.920
1.1624	84.697	84.697
1.1624	88.719	88.719
1.1624	92.512	92.512
1.1624	92.576	92.576
1.1624	92.861	92.861
1.1624	93.486	93.486
1.1624	93.865	93.865
1.1624	94.405	94.405
1.1624	95.748	95.748
1.1624	97.469	97.469
1.1624	99.890	99.890
1.1624	101.62	101.62
1.1624	104.08	104.08
1.1624	107.82	107.82
1.1624	111.51	111.51
1.1624	115.54	115.54
1.1624	118.51	118.51
1.1624	120.93	120.93
1.1624	125.11	125.11
1.1624	128.83	128.83
1.1624	131.89	131.89
1.1624	136.60	136.60
1.1624	141.40	141.40
1.1624	145.28	145.28
1.1624	149.08	149.08
1.1624	154.16	154.16
1.1624	157.32	157.32
1.1624	159.16	159.16
1.1624	160.58	160.58
1.1624	164.76	164.76
1.1624	167.75	167.75
1.1624	168.56	168.56
1.1624	172.93	172.93
1.1624	174.14	174.14
1.1624	178.55	178.55
1.1624	180.57	180.57
1.1624	182.65	182.65
1.1624	185.02	185.02
1.1624	185.14	185.14
1.1624	185.21	185.21
1.1624	185.72	185.72
1.1624	187.33	187.33
1.1938	35.799	35.799
1.1938	47.689	47.689
1.1938	55.032	55.032
1.1938	63.164	63.164
1.1938	68.510	68.510
1.1938	73.846	73.846
1.1938	78.472	78.472
1.1938	84.349	84.349
1.1938	86.032	86.032
1.1938	90.209	90.209
1.1938	95.011	95.011
1.1938	95.039	95.039
1.1938	95.176	95.176
1.1938	95.626	95.626
1.1938	96.461	96.461
1.1938	96.651	96.651
1.1938	98.030	98.030
1.1938	99.566	99.566
1.1938	101.64	101.64
1.1938	103.13	103.13
1.1938	105.87	105.87
1.1938	109.06	109.06
1.1938	113.23	113.23
1.1938	116.95	116.95
1.1938	120.44	120.44
1.1938	122.36	122.36
1.1938	126.36	126.36
1.1938	130.49	130.49
1.1938	133.00	133.00
1.1938	137.69	137.69
1.1938	142.52	142.52
1.1938	147.12	147.12
1.1938	150.16	150.16
1.1938	155.17	155.17
1.1938	158.03	158.03
1.1938	159.29	159.29
1.1938	161.69	161.69
1.1938	166.51	166.51
1.1938	167.47	167.47
1.1938	169.34	169.34
1.1938	173.07	173.07
1.1938	173.90	173.90
1.1938	179.72	179.72
1.1938	181.58	181.58
1.1938	182.50	182.50
1.1938	186.15	186.15
1.1938	190.02	190.02
1.1938	190.13	190.13
1.1938	190.64	190.64
1.1938	191.83	191.83
1.2252	36.700	36.700
1.2252	48.541	48.541
1.2252	56.137	56.137
1.2252	64.162	64.162
1.2252	69.740	69.740
1.2252	75.189	75.189
1.2252	79.809	79.809
1.2252	85.754	85.754
1.2252	87.367	87.367
1.2252	91.699	91.699
1.2252	96.927	96.927
1.2252	97.514	97.514
1.2252	97.589	97.589
1.2252	97.977	97.977
1.2252	98.972	98.972
1.2252	99.103	99.103
1.2252	100.34	100.34
1.2252	101.67	101.67
1.2252	103.50	103.50
1.2252	104.62	104.62
1.2252	107.62	107.62
1.2252	110.38	110.38
1.2252	114.97	114.97
1.2252	118.35	118.35
1.2252	122.27	122.27
1.2252	123.90	123.90
1.2252	127.66	127.66
1.2252	132.14	132.14
1.2252	134.21	134.21
1.2252	138.83	138.83
1.2252	143.63	143.63
1.2252	148.86	148.86
1.2252	151.33	151.33
1.2252	156.18	156.18
1.2252	156.91	156.91
1.2252	160.94	160.94
1.2252	163.04	163.04
1.2252	166.39	166.39
1.2252	167.95	167.95
1.2252	171.42	171.42
1.2252	171.99	171.99
1.2252	174.89	174.89
1.2252	180.51	180.51
1.2252	180.67	180.67
1.2252	184.54	184.54
1.2252	187.03	187.03
1.2252	191.38	191.38
1.2252	193.42	193.42
1.2252	195.02	195.02
1.2252	195.10	195.10
1.2566	37.604	37.604
1.2566	49.386	49.386
1.2566	57.244	57.244
1.2566	65.150	65.150
1.2566	70.959	70.959
1.2566	76.503	76.503
1.2566	81.167	81.167
1.2566	87.119	87.119
1.2566	88.728	88.728
1.2566	93.183	93.183
1.2566	98.490	98.490
1.2566	100.01	100.01
1.2566	100.08	100.08
1.2566	100.43	100.43
1.2566	101.36	101.36
1.2566	101.71	101.71
1.2566	102.62	102.62
1.2566	103.80	103.80
1.2566	105.41	105.41
1.2566	106.18	106.18
1.2566	109.26	109.26
1.2566	111.87	111.87
1.2566	116.69	116.69
1.2566	119.78	119.78
1.2566	123.96	123.96
1.2566	125.56	125.56
1.2566	129.00	129.00
1.2566	133.70	133.70
1.2566	135.58	135.58
1.2566	140.00	140.00
1.2566	144.75	144.75
1.2566	150.42	150.42
1.2566	152.64	152.64
1.2566	155.79	155.79
1.2566	157.21	157.21
1.2566	162.25	162.25
1.2566	164.61	164.61
1.2566	165.31	165.31
1.2566	169.18	169.18
1.2566	170.92	170.92
1.2566	173.82	173.82
1.2566	175.95	175.95
1.2566	179.45	179.45
1.2566	181.56	181.56
1.2566	186.59	186.59
1.2566	187.91	187.91
1.2566	190.32	190.32
1.2566	194.39	194.39
1.2566	198.23	198.23
1.2566	200.03	200.03
1.2881	38.511	38.511
1.2881	50.226	50.226
1.2881	58.350	58.350
1.2881	66.130	66.130
1.2881	72.168	72.168
1.2881	77.782	77.782
1.2881	82.546	82.546
1.2881	88.432	88.432
1.2881	90.136	90.136
1.2881	94.660	94.660
1.2881	99.948	99.948
1.2881	102.52	102.52
1.2881	102.58	102.58
1.2881	102.89	102.89
1.2881	103.71	103.71
1.2881	104.33	104.33
1.2881	104.83	104.83
1.2881	106.00	106.00
1.2881	107.15	107.15
1.2881	108.02	108.02
1.2881	110.80	110.80
1.2881	113.57	113.57
1.2881	118.35	118.35
1.2881	121.29	121.29
1.2881	125.51	125.51
1.2881	127.26	127.26
1.2881	130.41	130.41
1.2881	135.13	135.13
1.2881	137.16	137.16
1.2881	141.21	141.21
1.2881	145.90	145.90
1.2881	151.75	151.75
1.2881	154.12	154.12
1.2881	154.68	154.68
1.2881	158.29	158.29
1.2881	163.38	163.38
1.2881	164.23	164.23
1.2881	166.25	166.25
1.2881	169.85	169.85
1.2881	170.37	170.37
1.2881	176.01	176.01
1.2881	177.42	177.42
1.2881	178.39	178.39
1.2881	182.46	182.46
1.2881	188.41	188.41
1.2881	189.00	189.00
1.2881	189.26	189.26
1.2881	195.30	195.30
1.2881	200.44	200.44
1.2881	201.70	201.70
1.3195	39.420	39.420
1.3195	51.061	51.061
1.3195	59.453	59.453
1.3195	67.105	67.105
1.3195	73.370	73.370
1.3195	79.026	79.026
1.3195	83.942	83.942
1.3195	89.696	89.696
1.3195	91.594	91.594
1.3195	96.127	96.127
1.3195	101.35	101.35
1.3195	105.02	105.02
1.3195	105.07	105.07
1.3195	105.34	105.34
1.3195	105.96	105.96
1.3195	106.93	106.93
1.3195	107.01	107.01
1.3195	108.18	108.18
1.3195	108.80	108.80
1.3195	110.11	110.11
1.3195	112.30	112.30
1.3195	115.44	115.44
1.3195	119.92	119.92
1.3195	122.90	122.90
1.3195	126.96	126.96
1.3195	128.95	128.95
1.3195	131.90	131.90
1.3195	136.47	136.47
1.3195	138.93	138.93
1.3195	142.46	142.46
1.3195	147.10	147.10
1.3195	152.91	152.91
1.3195	153.57	153.57
1.3195	155.68	155.68
1.3195	159.44	159.44
1.3195	163.15	163.15
1.3195	164.45	164.45
1.3195	167.85	167.85
1.3195	168.79	168.79
1.3195	171.61	171.61
1.3195	177.33	177.33
1.3195	177.37	177.37
1.3195	179.79	179.79
1.3195	183.42	183.42
1.3195	188.21	188.21
1.3195	189.44	189.44
1.3195	190.87	190.87
1.3195	196.18	196.18
1.3195	200.85	200.85
1.3195	202.00	202.00
1.3509	40.332	40.332
1.3509	51.893	51.893
1.3509	60.551	60.551
1.3509	68.077	68.077
1.3509	74.566	74.566
1.3509	80.236	80.236
1.3509	85.353	85.353
1.3509	90.923	90.923
1.3509	93.092	93.092
1.3509	97.586	97.586
1.3509	102.73	102.73
1.3509	107.52	107.52
1.3509	107.54	107.54
1.3509	107.67	107.67
1.3509	108.11	108.11
1.3509	109.12	109.12
1.3509	109.60	109.60
1.3509	110.01	110.01
1.3509	110.90	110.90
1.3509	112.23	112.23
1.3509	113.90	113.90
1.3509	117.40	117.40
1.3509	121.41	121.41
1.3509	124.61	124.61
1.3509	128.36	128.36
1.3509	130.59	130.59
1.3509	133.46	133.46
1.3509	137.78	137.78
1.3509	140.79	140.79
1.3509	143.76	143.76
1.3509	148.36	148.36
1.3509	152.46	152.46
1.3509	153.97	153.97
1.3509	157.25	157.25
1.3509	160.69	160.69
1.3509	162.07	162.07
1.3509	165.50	165.50
1.3509	167.72	167.72
1.3509	169.33	169.33
1.3509	172.95	172.95
1.3509	176.28	176.28
1.3509	178.42	178.42
1.3509	182.33	182.33
1.3509	184.60	184.60
1.3509	187.16	187.16
1.3509	190.30	190.30
1.3509	192.91	192.91
1.3509	197.07	197.07
1.3509	199.79	199.79
1.3509	203.10	203.10
1.3823	41.245	41.245
1.3823	52.725	52.725
1.3823	61.640	61.640
1.3823	69.049	69.049
1.3823	75.756	75.756
1.3823	81.413	81.413
1.3823	86.771	86.771
1.3823	92.129	92.129
1.3823	94.617	94.617
1.3823	99.038	99.038
1.3823	104.10	104.10
1.3823	109.42	109.42
1.3823	110.02	110.02
1.3823	110.09	110.09
1.3823	110.42	110.42
1.3823	111.14	111.14
1.3823	111.90	111.90
1.3823	112.25	112.25
1.3823	113.23	113.23
1.3823	114.29	114.29
1.3823	115.74	115.74
1.3823	119.40	119.40
1.3823	122.85	122.85
1.3823	126.39	126.39
1.3823	129.72	129.72
1.3823	132.18	132.18
1.3823	135.07	135.07
1.3823	139.12	139.12
1.3823	142.65	142.65
1.3823	145.15	145.15
1.3823	149.68	149.68
1.3823	151.35	151.35
1.3823	154.98	154.98
1.3823	158.74	158.74
1.3823	161.00	161.00
1.3823	162.04	162.04
1.3823	166.57	166.57
1.3823	166.66	166.66
1.3823	170.70	170.70
1.3823	174.41	174.41
1.3823	175.23	175.23
1.3823	179.41	179.41
1.3823	184.26	184.26
1.3823	186.12	186.12
1.3823	186.47	186.47
1.3823	191.14	191.14
1.3823	194.97	194.97
1.3823	198.00	198.00
1.3823	198.75	198.75
1.3823	204.09	204.09
1.4137	42.161	42.161
1.4137	53.555	53.555
1.4137	62.719	62.719
1.4137	70.023	70.023
1.4137	76.941	76.941
1.4137	82.559	82.559
1.4137	88.191	88.191
1.4137	93.325	93.325
1.4137	96.158	96.158
1.4137	100.49	100.49
1.4137	105.47	105.47
1.4137	110.83	110.83
1.4137	112.52	112.52
1.4137	112.57	112.57
1.4137	112.72	112.72
1.4137	113.08	113.08
1.4137	114.10	114.10
1.4137	114.90	114.90
1.4137	115.45	115.45
1.4137	116.38	116.38
1.4137	117.85	117.85
1.4137	121.39	121.39
1.4137	124.30	124.30
1.4137	128.18	128.18
1.4137	131.07	131.07
1.4137	133.74	133.74
1.4137	136.71	136.71
1.4137	140.51	140.51
1.4137	144.41	144.41
1.4137	146.71	146.71
1.4137	150.25	150.25
1.4137	151.08	151.08
1.4137	155.97	155.97
1.4137	159.92	159.92
1.4137	160.15	160.15
1.4137	163.50	163.50
1.4137	165.61	165.61
1.4137	167.65	167.65
1.4137	171.95	171.95
1.4137	174.19	174.19
1.4137	175.99	175.99
1.4137	180.39	180.39
1.4137	185.09	185.09
1.4137	185.52	185.52
1.4137	189.02	189.02
1.4137	191.98	191.98
1.4137	196.99	196.99
1.4137	197.71	197.71
1.4137	199.04	199.04
1.4137	205.07	205.07
1.4451	43.078	43.078
1.4451	54.387	54.387
1.4451	63.786	63.786
1.4451	71.002	71.002
1.4451	78.123	78.123
1.4451	83.678	83.678
1.4451	89.607	89.607
1.4451	94.521	94.521
1.4451	97.705	97.705
1.4451	101.94	101.94
1.4451	106.86	106.86
1.4451	112.04	112.04
1.4451	114.49	114.49
1.4451	115.03	115.03
1.4451	115.09	115.09
1.4451	115.43	115.43
1.4451	116.35	116.35
1.4451	117.47	117.47
1.4451	117.57	117.57
1.4451	118.70	118.70
1.4451	120.12	120.12
1.4451	123.32	123.32
1.4451	125.83	125.83
1.4451	129.91	129.91
1.4451	132.45	132.45
1.4451	135.27	135.27
1.4451	138.36	138.36
1.4451	141.95	141.95
1.4451	145.98	145.98
1.4451	148.45	148.45
1.4451	149.15	149.15
1.4451	152.57	152.57
1.4451	156.97	156.97
1.4451	158.85	158.85
1.4451	161.47	161.47
1.4451	164.55	164.55
1.4451	165.04	165.04
1.4451	168.75	168.75
1.4451	173.14	173.14
1.4451	173.15	173.15
1.4451	177.65	177.65
1.4451	181.38	181.38
1.4451	184.05	184.05
1.4451	186.60	186.60
1.4451	191.68	191.68
1.4451	192.83	192.83
1.4451	196.67	196.67
1.4451	198.75	198.75
1.4451	200.46	200.46
1.4451	206.06	206.06
1.4765	43.997	43.997
1.4765	55.219	55.219
1.4765	64.839	64.839
1.4765	71.986	71.986
1.4765	79.300	79.300
1.4765	84.774	84.774
1.4765	91.010	91.010
1.4765	95.723	95.723
1.4765	99.250	99.250
1.4765	103.39	103.39
1.4765	108.25	108.25
1.4765	113.16	113.16
1.4765	116.13	116.13
1.4765	117.53	117.53
1.4765	117.58	117.58
1.4765	117.87	117.87
1.4765	118.53	118.53
1.4765	119.56	119.56
1.4765	120.23	120.23
1.4765	121.15	121.15
1.4765	122.47	122.47
1.4765	125.14	125.14
1.4765	127.52	127.52
1.4765	131.53	131.53
1.4765	133.92	133.92
1.4765	136.82	136.82
1.4765	140.01	140.01
1.4765	143.46	143.46
1.4765	147.40	147.40
1.4765	148.06	148.06
1.4765	150.34	150.34
1.4765	154.17	154.17
1.4765	157.78	157.78
1.4765	157.98	157.98
1.4765	162.73	162.73
1.4765	163.50	163.50
1.4765	166.63	166.63
1.4765	169.89	169.89
1.4765	172.12	172.12
1.4765	174.30	174.30
1.4765	179.34	179.34
1.4765	182.40	182.40
1.4765	183.03	183.03
1.4765	187.64	187.64
1.4765	193.68	193.68
1.4765	194.26	194.26
1.4765	195.64	195.64
1.4765	200.01	200.01
1.4765	202.50	202.50
1.4765	207.07	207.07
1.5080	44.918	44.918
1.5080	56.053	56.053
1.5080	65.876	65.876
1.5080	72.979	72.979
1.5080	80.473	80.473
1.5080	85.850	85.850
1.5080	92.395	92.395
1.5080	96.936	96.936
1.5080	100.79	100.79
1.5080	104.85	104.85
1.5080	109.66	109.66
1.5080	114.22	114.22
1.5080	117.68	117.68
1.5080	120.03	120.03
1.5080	120.07	120.07
1.5080	120.23	120.23
1.5080	120.65	120.65
1.5080	121.80	121.80
1.5080	122.90	122.90
1.5080	123.63	123.63
1.5080	124.84	124.84
1.5080	126.85	126.85
1.5080	129.37	129.37
1.5080	132.99	132.99
1.5080	135.50	135.50
1.5080	138.38	138.38
1.5080	141.64	141.64
1.5080	145.03	145.03
1.5080	146.97	146.97
1.5080	148.74	148.74
1.5080	152.23	152.23
1.5080	155.89	155.89
1.5080	156.71	156.71
1.5080	159.04	159.04
1.5080	162.45	162.45
1.5080	163.94	163.94
1.5080	168.24	168.24
1.5080	171.07	171.07
1.5080	171.08	171.08
1.5080	175.44	175.44
1.5080	181.02	181.02
1.5080	182.01	182.01
1.5080	183.49	183.49
1.5080	188.70	188.70
1.5080	194.54	194.54
1.5080	194.61	194.61
1.5080	196.69	196.69
1.5080	201.04	201.04
1.5080	204.88	204.88
1.5080	207.92	207.92
1.5394	45.839	45.839
1.5394	56.890	56.890
1.5394	66.898	66.898
1.5394	73.981	73.981
1.5394	81.641	81.641
1.5394	86.911	86.911
1.5394	93.756	93.756
1.5394	98.162	98.162
1.5394	102.31	102.31
1.5394	106.33	106.33
1.5394	111.09	111.09
1.5394	115.27	115.27
1.5394	119.15	119.15
1.5394	122.26	122.26
1.5394	122.53	122.53
1.5394	122.60	122.60
1.5394	122.98	122.98
1.5394	124.15	124.15
1.5394	125.58	125.58
1.5394	126.08	126.08
1.5394	127.18	127.18
1.5394	128.56	128.56
1.5394	131.34	131.34
1.5394	134.33	134.33
1.5394	137.18	137.18
1.5394	139.99	139.99
1.5394	143.26	143.26
1.5394	145.88	145.88
1.5394	146.66	146.66
1.5394	150.05	150.05
1.5394	154.03	154.03
1.5394	155.65	155.65
1.5394	157.75	157.75
1.5394	160.17	160.17
1.5394	161.40	161.40
1.5394	165.12	165.12
1.5394	169.83	169.83
1.5394	170.06	170.06
1.5394	172.31	172.31
1.5394	176.59	176.59
1.5394	180.99	180.99
1.5394	182.59	182.59
1.5394	184.73	184.73
1.5394	189.77	189.77
1.5394	193.59	193.59
1.5394	195.42	195.42
1.5394	198.96	198.96
1.5394	202.01	202.01
1.5394	206.85	206.85
1.5394	207.30	207.30
1.5708	46.763	46.763
1.5708	57.729	57.729
1.5708	67.902	67.902
1.5708	74.993	74.993
1.5708	82.804	82.804
1.5708	87.960	87.960
1.5708	95.088	95.088
1.5708	99.403	99.403
1.5708	103.82	103.82
1.5708	107.82	107.82
1.5708	112.52	112.52
1.5708	116.33	116.33
1.5708	120.57	120.57
1.5708	124.18	124.18
1.5708	125.04	125.04
1.5708	125.10	125.10
1.5708	125.43	125.43
1.5708	126.53	126.53
1.5708	128.27	128.27
1.5708	128.41	128.41
1.5708	129.44	129.44
1.5708	130.47	130.47
1.5708	133.33	133.33
1.5708	135.63	135.63
1.5708	138.88	138.88
1.5708	141.66	141.66
1.5708	144.79	144.79
1.5708	144.88	144.88
1.5708	148.34	148.34
1.5708	151.36	151.36
1.5708	154.58	154.58
1.5708	155.69	155.69
1.5708	159.71	159.71
1.5708	160.36	160.36
1.5708	161.44	161.44
1.5708	166.28	166.28
1.5708	169.03	169.03
1.5708	171.36	171.36
1.5708	173.62	173.62
1.5708	177.77	177.77
1.5708	179.98	179.98
1.5708	183.95	183.95
1.5708	186.21	186.21
1.5708	190.86	190.86
1.5708	192.57	192.57
1.5708	196.33	196.33
1.5708	201.09	201.09
1.5708	202.97	202.97
1.5708	205.78	205.78
1.5708	209.27	209.27
1.6022	47.687	47.687
1.6022	58.571	58.571
1.6022	68.889	68.889
1.6022	76.016	76.016
1.6022	83.959	83.959
1.6022	89.002	89.002
1.6022	96.389	96.389
1.6022	100.66	100.66
1.6022	105.31	105.31
1.6022	109.33	109.33
1.6022	113.95	113.95
1.6022	117.41	117.41
1.6022	121.94	121.94
1.6022	126.04	126.04
1.6022	127.54	127.54
1.6022	127.60	127.60
1.6022	127.91	127.91
1.6022	128.91	128.91
1.6022	130.44	130.44
1.6022	130.97	130.97
1.6022	131.68	131.68
1.6022	132.71	132.71
1.6022	135.20	135.20
1.6022	137.06	137.06
1.6022	140.57	140.57
1.6022	143.38	143.38
1.6022	143.71	143.71
1.6022	146.49	146.49
1.6022	150.06	150.06
1.6022	152.72	152.72
1.6022	153.52	153.52
1.6022	157.19	157.19
1.6022	159.32	159.32
1.6022	161.61	161.61
1.6022	162.99	162.99
1.6022	167.43	167.43
1.6022	168.01	168.01
1.6022	172.82	172.82
1.6022	175.04	175.04
1.6022	178.96	178.96
1.6022	178.97	178.97
1.6022	185.14	185.14
1.6022	187.90	187.90
1.6022	191.56	191.56
1.6022	191.96	191.96
1.6022	197.25	197.25
1.6022	203.10	203.10
1.6022	203.94	203.94
1.6022	204.71	204.71
1.6022	210.61	210.61
1.6336	48.613	48.613
1.6336	59.416	59.416
1.6336	69.859	69.859
1.6336	77.048	77.048
1.6336	85.106	85.106
1.6336	90.042	90.042
1.6336	97.657	97.657
1.6336	101.92	101.92
1.6336	106.79	106.79
1.6336	110.86	110.86
1.6336	115.38	115.38
1.6336	118.52	118.52
1.6336	123.27	123.27
1.6336	127.84	127.84
1.6336	130.04	130.04
1.6336	130.10	130.10
1.6336	130.38	130.38
1.6336	131.23	131.23
1.6336	132.27	132.27
1.6336	133.67	133.67
1.6336	134.02	134.02
1.6336	135.13	135.13
1.6336	136.82	136.82
1.6336	138.78	138.78
1.6336	142.22	142.22
1.6336	142.63	142.63
1.6336	145.15	145.15
1.6336	148.13	148.13
1.6336	151.78	151.78
1.6336	152.46	152.46
1.6336	154.12	154.12
1.6336	158.28	158.28
1.6336	158.57	158.57
1.6336	163.28	163.28
1.6336	164.95	164.95
1.6336	166.99	166.99
1.6336	168.58	168.58
1.6336	174.20	174.20
1.6336	176.55	176.55
1.6336	177.96	177.96
1.6336	180.18	180.18
1.6336	186.21	186.21
1.6336	189.73	189.73
1.6336	190.55	190.55
1.6336	193.07	193.07
1.6336	198.22	198.22
1.6336	203.64	203.64
1.6336	204.89	204.89
1.6336	205.04	205.04
1.6336	211.73	211.73
1.6650	49.539	49.539
1.6650	60.265	60.265
1.6650	70.812	70.812
1.6650	78.091	78.091
1.6650	86.242	86.242
1.6650	91.083	91.083
1.6650	98.891	98.891
1.6650	103.20	103.20
1.6650	108.25	108.25
1.6650	112.39	112.39
1.6650	116.81	116.81
1.6650	119.68	119.68
1.6650	124.58	124.58
1.6650	129.59	129.59
1.6650	132.55	132.55
1.6650	132.60	132.60
1.6650	132.83	132.83
1.6650	133.32	133.32
1.6650	134.27	134.27
1.6650	136.32	136.32
1.6650	136.40	136.40
1.6650	137.53	137.53
1.6650	138.33	138.33
1.6650	140.75	140.75
1.6650	141.55	141.55
1.6650	143.85	143.85
1.6650	146.93	146.93
1.6650	149.81	149.81
1.6650	151.40	151.40
1.6650	153.49	153.49
1.6650	155.61	155.61
1.6650	157.24	157.24
1.6650	159.86	159.86
1.6650	164.79	164.79
1.6650	165.98	165.98
1.6650	167.19	167.19
1.6650	169.73	169.73
1.6650	175.51	175.51
1.6650	176.97	176.97
1.6650	178.15	178.15
1.6650	181.43	181.43
1.6650	187.25	187.25
1.6650	189.55	189.55
1.6650	191.60	191.60
1.6650	194.20	194.20
1.6650	199.22	199.22
1.6650	202.57	202.57
1.6650	205.91	205.91
1.6650	206.86	206.86
1.6650	212.82	212.82
1.6965	50.467	50.467
1.6965	61.117	61.117
1.6965	71.750	71.750
1.6965	79.142	79.142
1.6965	87.367	87.367
1.6965	92.131	92.131
1.6965	100.09	100.09
1.6965	104.48	104.48
1.6965	109.70	109.70
1.6965	113.92	113.92
1.6965	118.23	118.23
1.6965	120.89	120.89
1.6965	125.86	125.86
1.6965	131.28	131.28
1.6965	134.93	134.93
1.6965	135.05	135.05
1.6965	135.12	135.12
1.6965	135.46	135.46
1.6965	136.53	136.53
1.6965	138.41	138.41
1.6965	139.11	139.11
1.6965	139.51	139.51
1.6965	140.46	140.46
1.6965	140.48	140.48
1.6965	142.82	142.82
1.6965	145.48	145.48
1.6965	148.71	148.71
1.6965	150.34	150.34
1.6965	151.58	151.58
1.6965	155.15	155.15
1.6965	156.21	156.21
1.6965	157.18	157.18
1.6965	161.09	161.09
1.6965	164.97	164.97
1.6965	166.28	166.28
1.6965	169.53	169.53
1.6965	170.90	170.90
1.6965	175.97	175.97
1.6965	176.79	176.79
1.6965	179.83	179.83
1.6965	182.69	182.69
1.6965	188.29	188.29
1.6965	188.55	188.55
1.6965	193.48	193.48
1.6965	195.36	195.36
1.6965	200.27	200.27
1.6965	201.51	201.51
1.6965	206.92	206.92
1.6965	208.66	208.66
1.6965	213.35	213.35
1.7279	51.396	51.396
1.7279	61.973	61.973
1.7279	72.673	72.673
1.7279	80.202	80.202
1.7279	88.479	88.479
1.7279	93.188	93.188
1.7279	101.26	101.26
1.7279	105.76	105.76
1.7279	111.13	111.13
1.7279	115.45	115.45
1.7279	119.65	119.65
1.7279	122.16	122.16
1.7279	127.13	127.13
1.7279	132.90	132.90
1.7279	136.64	136.64
1.7279	137.55	137.55
1.7279	137.61	137.61
1.7279	137.91	137.91
1.7279	138.86	138.86
1.7279	139.41	139.41
1.7279	139.98	139.98
1.7279	141.62	141.62
1.7279	141.85	141.85
1.7279	143.00	143.00
1.7279	144.85	144.85
1.7279	147.17	147.17
1.7279	149.29	149.29
1.7279	150.46	150.46
1.7279	153.42	153.42
1.7279	155.18	155.18
1.7279	156.75	156.75
1.7279	158.83	158.83
1.7279	162.32	162.32
1.7279	163.97	163.97
1.7279	167.76	167.76
1.7279	171.88	171.88
1.7279	172.11	172.11
1.7279	174.98	174.98
1.7279	178.06	178.06
1.7279	181.56	181.56
1.7279	183.96	183.96
1.7279	187.55	187.55
1.7279	189.36	189.36
1.7279	195.23	195.23
1.7279	196.65	196.65
1.7279	200.45	200.45
1.7279	201.37	201.37
1.7279	207.96	207.96
1.7279	210.41	210.41
1.7279	212.21	212.21
1.7593	52.325	52.325
1.7593	62.832	62.832
1.7593	73.582	73.582
1.7593	81.267	81.267
1.7593	89.576	89.576
1.7593	94.258	94.258
1.7593	102.40	102.40
1.7593	107.04	107.04
1.7593	112.55	112.55
1.7593	116.97	116.97
1.7593	121.07	121.07
1.7593	123.49	123.49
1.7593	128.38	128.38
1.7593	134.46	134.46
1.7593	138.27	138.27
1.7593	138.34	138.34
1.7593	140.06	140.06
1.7593	140.11	140.11
1.7593	140.36	140.36
1.7593	140.89	140.89
1.7593	141.67	141.67
1.7593	143.91	143.91
1.7593	144.58	144.58
1.7593	145.58	145.58
1.7593	146.79	146.79
1.7593	148.24	148.24
1.7593	148.97	148.97
1.7593	152.20	152.20
1.7593	154.15	154.15
1.7593	155.35	155.35
1.7593	158.31	158.31
1.7593	160.52	160.52
1.7593	162.97	162.97
1.7593	163.59	163.59
1.7593	169.22	169.22
1.7593	173.31	173.31
1.7593	174.00	174.00
1.7593	174.27	174.27
1.7593	179.33	179.33
1.7593	183.35	183.35
1.7593	185.25	185.25
1.7593	186.56	186.56
1.7593	190.45	190.45
1.7593	196.71	196.71
1.7593	198.20	198.20
1.7593	199.38	199.38
1.7593	202.53	202.53
1.7593	209.01	209.01
1.7593	211.07	211.07
1.7593	212.14	212.14
1.7907	53.255	53.255
1.7907	63.695	63.695
1.7907	74.479	74.479
1.7907	82.337	82.337
1.7907	90.658	90.658
1.7907	95.344	95.344
1.7907	103.51	103.51
1.7907	108.32	108.32
1.7907	113.96	113.96
1.7907	118.46	118.46
1.7907	122.50	122.50
1.7907	124.86	124.86
1.7907	129.63	129.63
1.7907	135.96	135.96
1.7907	137.28	137.28
1.7907	139.87	139.87
1.7907	142.22	142.22
1.7907	142.56	142.56
1.7907	142.62	142.62
1.7907	142.92	142.92
1.7907	143.94	143.94
1.7907	146.19	146.19
1.7907	147.18	147.18
1.7907	147.33	147.33
1.7907	148.04	148.04
1.7907	148.76	148.76
1.7907	150.92	150.92
1.7907	153.13	153.13
1.7907	153.95	153.95
1.7907	157.32	157.32
1.7907	159.86	159.86
1.7907	161.97	161.97
1.7907	162.17	162.17
1.7907	164.98	164.98
1.7907	170.65	170.65
1.7907	173.02	173.02
1.7907	174.61	174.61
1.7907	176.58	176.58
1.7907	180.63	180.63
1.7907	185.19	185.19
1.7907	185.58	185.58
1.7907	186.53	186.53
1.7907	191.60	191.60
1.7907	197.92	197.92
1.7907	198.32	198.32
1.7907	199.99	199.99
1.7907	203.75	203.75
1.7907	209.94	209.94
1.7907	210.08	210.08
1.7907	213.84	213.84
1.8221	54.186	54.186
1.8221	64.562	64.562
1.8221	75.365	75.365
1.8221	83.410	83.410
1.8221	91.725	91.725
1.8221	96.449	96.449
1.8221	104.60	104.60
1.8221	109.58	109.58
1.8221	115.35	115.35
1.8221	119.92	119.92
1.8221	123.97	123.97
1.8221	126.27	126.27
1.8221	130.88	130.88
1.8221	136.22	136.22
1.8221	137.40	137.40
1.8221	141.41	141.41
1.8221	143.58	143.58
1.8221	145.07	145.07
1.8221	145.12	145.12
1.8221	145.40	145.40
1.8221	146.13	146.13
1.8221	146.35	146.35
1.8221	148.36	148.36
1.8221	150.03	150.03
1.8221	150.10	150.10
1.8221	151.15	151.15
1.8221	152.11	152.11
1.8221	152.97	152.97
1.8221	155.75	155.75
1.8221	159.31	159.31
1.8221	160.97	160.97
1.8221	161.41	161.41
1.8221	163.72	163.72
1.8221	166.55	166.55
1.8221	172.03	172.03
1.8221	172.04	172.04
1.8221	175.98	175.98
1.8221	178.80	178.80
1.8221	181.97	181.97
1.8221	184.59	184.59
1.8221	187.08	187.08
1.8221	187.83	187.83
1.8221	192.80	192.80
1.8221	197.26	197.26
1.8221	199.00	199.00
1.8221	201.86	201.86
1.8221	205.04	205.04
1.8221	208.81	208.81
1.8221	211.18	211.18
1.8221	215.52	215.52
1.8535	55.118	55.118
1.8535	65.433	65.433
1.8535	76.242	76.242
1.8535	84.483	84.483
1.8535	92.777	92.777
1.8535	97.572	97.572
1.8535	105.67	105.67
1.8535	110.84	110.84
1.8535	116.73	116.73
1.8535	121.35	121.35
1.8535	125.47	125.47
1.8535	127.71	127.71
1.8535	132.14	132.14
1.8535	135.16	135.16
1.8535	138.80	138.80
1.8535	142.88	142.88
1.8535	144.98	144.98
1.8535	145.09	145.09
1.8535	147.58	147.58
1.8535	147.62	147.62
1.8535	147.89	147.89
1.8535	148.75	148.75
1.8535	150.29	150.29
1.8535	151.09	151.09
1.8535	151.96	151.96
1.8535	152.85	152.85
1.8535	153.75	153.75
1.8535	155.05	155.05
1.8535	157.63	157.63
1.8535	159.98	159.98
1.8535	161.26	161.26
1.8535	163.00	163.00
1.8535	165.18	165.18
1.8535	168.30	168.30
1.8535	171.07	171.07
1.8535	173.35	173.35
1.8535	177.42	177.42
1.8535	180.91	180.91
1.8535	183.39	183.39
1.8535	183.61	183.61
1.8535	188.82	188.82
1.8535	189.33	189.33
1.8535	194.06	194.06
1.8535	196.20	196.20
1.8535	200.04	200.04
1.8535	203.71	203.71
1.8535	206.43	206.43
1.8535	207.68	207.68
1.8535	212.31	212.31
1.8535	216.85	216.85
1.8850	56.051	56.051
1.8850	66.307	66.307
1.8850	77.110	77.110
1.8850	85.556	85.556
1.8850	93.814	93.814
1.8850	98.715	98.715
1.8850	106.71	106.71
1.8850	112.09	112.09
1.8850	118.09	118.09
1.8850	122.75	122.75
1.8850	127.01	127.01
1.8850	129.16	129.16
1.8850	133.41	133.41
1.8850	134.11	134.11
1.8850	140.15	140.15
1.8850	144.04	144.04
1.8850	144.30	144.30
1.8850	146.44	146.44
1.8850	150.07	150.07
1.8850	150.08	150.08
1.8850	150.13	150.13
1.8850	150.37	150.37
1.8850	151.07	151.07
1.8850	152.02	152.02
1.8850	154.06	154.06
1.8850	155.63	155.63
1.8850	156.34	156.34
1.8850	157.19	157.19
1.8850	159.00	159.00
1.8850	159.62	159.62
1.8850	163.12	163.12
1.8850	164.64	164.64
1.8850	166.63	166.63
1.8850	170.11	170.11
1.8850	170.17	170.17
1.8850	174.63	174.63
1.8850	178.93	178.93
1.8850	182.64	182.64
1.8850	182.85	182.85
1.8850	184.90	184.90
1.8850	190.17	190.17
1.8850	191.30	191.30
1.8850	195.14	195.14
1.8850	195.39	195.39
1.8850	201.07	201.07
1.8850	205.48	205.48
1.8850	206.56	206.56
1.8850	207.93	207.93
1.8850	213.46	213.46
1.8850	215.33	215.33
1.9164	56.984	56.984
1.9164	67.184	67.184
1.9164	77.972	77.972
1.9164	86.626	86.626
1.9164	94.840	94.840
1.9164	99.877	99.877
1.9164	107.74	107.74
1.9164	113.33	113.33
1.9164	119.43	119.43
1.9164	124.13	124.13
1.9164	128.59	128.59
1.9164	130.62	130.62
1.9164	133.05	133.05
1.9164	134.71	134.71
1.9164	141.46	141.46
1.9164	143.00	143.00
1.9164	145.69	145.69
1.9164	147.95	147.95
1.9164	149.06	149.06
1.9164	152.59	152.59
1.9164	152.62	152.62
1.9164	152.76	152.76
1.9164	153.07	153.07
1.9164	154.01	154.01
1.9164	156.25	156.25
1.9164	158.01	158.01
1.9164	158.41	158.41
1.9164	158.69	158.69
1.9164	159.53	159.53
1.9164	161.69	161.69
1.9164	164.86	164.86
1.9164	166.29	166.29
1.9164	168.19	168.19
1.9164	169.14	169.14
1.9164	172.12	172.12
1.9164	175.89	175.89
1.9164	180.48	180.48
1.9164	181.67	181.67
1.9164	184.63	184.63
1.9164	186.53	186.53
1.9164	191.41	191.41
1.9164	193.45	193.45
1.9164	194.08	194.08
1.9164	196.78	196.78
1.9164	202.09	202.09
1.9164	205.45	205.45
1.9164	207.13	207.13
1.9164	209.55	209.55
1.9164	213.81	213.81
1.9164	214.64	214.64
1.9478	57.918	57.918
1.9478	68.066	68.066
1.9478	78.827	78.827
1.9478	87.692	87.692
1.9478	95.855	95.855
1.9478	101.06	101.06
1.9478	108.75	108.75
1.9478	114.57	114.57
1.9478	120.74	120.74
1.9478	125.50	125.50
1.9478	130.20	130.20
1.9478	132.01	132.01
1.9478	132.07	132.07
1.9478	136.02	136.02
1.9478	141.96	141.96
1.9478	142.74	142.74
1.9478	147.06	147.06
1.9478	148.05	148.05
1.9478	149.47	149.47
1.9478	154.34	154.34
1.9478	155.10	155.10
1.9478	155.14	155.14
1.9478	155.42	155.42
1.9478	156.34	156.34
1.9478	157.04	157.04
1.9478	158.46	158.46
1.9478	160.76	160.76
1.9478	161.21	161.21
1.9478	162.13	162.13
1.9478	163.83	163.83
1.9478	166.52	166.52
1.9478	167.86	167.86
1.9478	168.18	168.18
1.9478	169.96	169.96
1.9478	174.06	174.06
1.9478	177.19	177.19
1.9478	180.70	180.70
1.9478	182.06	182.06
1.9478	186.27	186.27
1.9478	188.22	188.22
1.9478	192.64	192.64
1.9478	193.02	193.02
1.9478	195.67	195.67
1.9478	198.24	198.24
1.9478	203.14	203.14
1.9478	204.34	204.34
1.9478	208.67	208.67
1.9478	211.29	211.29
1.9478	212.29	212.29
1.9478	215.85	215.85
1.9792	58.853	58.853
1.9792	68.951	68.951
1.9792	79.678	79.678
1.9792	88.752	88.752
1.9792	96.863	96.863
1.9792	102.26	102.26
1.9792	109.75	109.75
1.9792	115.79	115.79
1.9792	122.02	122.02
1.9792	126.86	126.86
1.9792	130.96	130.96
1.9792	131.82	131.82
1.9792	133.53	133.53
1.9792	137.38	137.38
1.9792	140.91	140.91
1.9792	143.99	143.99
1.9792	147.04	147.04
1.9792	148.44	148.44
1.9792	150.97	150.97
1.9792	155.70	155.70
1.9792	156.06	156.06
1.9792	157.60	157.60
1.9792	157.65	157.65
1.9792	157.90	157.90
1.9792	158.75	158.75
1.9792	160.62	160.62
1.9792	162.76	162.76
1.9792	164.01	164.01
1.9792	164.80	164.80
1.9792	165.99	165.99
1.9792	167.23	167.23
1.9792	168.18	168.18
1.9792	169.35	169.35
1.9792	171.94	171.94
1.9792	175.92	175.92
1.9792	178.60	178.60
1.9792	179.73	179.73
1.9792	183.65	183.65
1.9792	187.85	187.85
1.9792	189.93	189.93
1.9792	191.96	191.96
1.9792	193.87	193.87
1.9792	197.90	197.90
1.9792	199.81	199.81
1.9792	203.23	203.23
1.9792	204.21	204.21
1.9792	210.12	210.12
1.9792	210.77	210.77
1.9792	213.10	213.10
1.9792	216.29	216.29
2.0106	59.788	59.788
2.0106	69.839	69.839
2.0106	80.524	80.524
2.0106	89.804	89.804
2.0106	97.865	97.865
2.0106	103.47	103.47
2.0106	110.73	110.73
2.0106	117.00	117.00
2.0106	123.28	123.28
2.0106	128.23	128.23
2.0106	129.92	129.92
2.0106	133.44	133.44
2.0106	134.98	134.98
2.0106	138.76	138.76
2.0106	139.88	139.88
2.0106	145.23	145.23
2.0106	146.03	146.03
2.0106	149.83	149.83
2.0106	152.44	152.44
2.0106	155.09	155.09
2.0106	157.03	157.03
2.0106	160.11	160.11
2.0106	160.16	160.16
2.0106	160.39	160.39
2.0106	161.16	161.16
2.0106	162.70	162.70
2.0106	164.78	164.78
2.0106	166.28	166.28
2.0106	166.82	166.82
2.0106	167.40	167.40
2.0106	168.16	168.16
2.0106	169.88	169.88
2.0106	170.86	170.86
2.0106	174.03	174.03
2.0106	177.62	177.62
2.0106	178.77	178.77
2.0106	180.21	180.21
2.0106	185.24	185.24
2.0106	189.42	189.42
2.0106	190.90	190.90
2.0106	191.61	191.61
2.0106	195.11	195.11
2.0106	199.99	199.99
2.0106	201.60	201.60
2.0106	202.13	202.13
2.0106	205.34	205.34
2.0106	209.25	209.25
2.0106	211.50	211.50
2.0106	214.94	214.94
2.0106	215.04	215.04
2.0420	60.724	60.724
2.0420	70.731	70.731
2.0420	81.368	81.368
2.0420	90.848	90.848
2.0420	98.865	98.865
2.0420	104.69	104.69
2.0420	111.71	111.71
2.0420	118.21	118.21
2.0420	124.50	124.50
2.0420	128.88	128.88
2.0420	129.60	129.60
2.0420	135.03	135.03
2.0420	136.46	136.46
2.0420	138.84	138.84
2.0420	140.19	140.19
2.0420	145.03	145.03
2.0420	146.45	146.45
2.0420	151.23	151.23
2.0420	153.88	153.88
2.0420	154.12	154.12
2.0420	158.36	158.36
2.0420	162.62	162.62
2.0420	162.66	162.66
2.0420	162.88	162.88
2.0420	163.53	163.53
2.0420	164.69	164.69
2.0420	165.33	165.33
2.0420	166.86	166.86
2.0420	169.62	169.62
2.0420	169.66	169.66
2.0420	170.57	170.57
2.0420	171.56	171.56
2.0420	172.57	172.57
2.0420	176.14	176.14
2.0420	177.80	177.80
2.0420	179.15	179.15
2.0420	182.05	182.05
2.0420	186.81	186.81
2.0420	189.84	189.84
2.0420	190.99	190.99
2.0420	193.26	193.26
2.0420	196.39	196.39
2.0420	201.03	201.03
2.0420	201.76	201.76
2.0420	203.75	203.75
2.0420	206.53	206.53
2.0420	207.74	207.74
2.0420	212.85	212.85
2.0420	213.78	213.78
2.0420	216.77	216.77
2.0735	61.660	61.660
2.0735	71.626	71.626
2.0735	82.209	82.209
2.0735	91.882	91.882
2.0735	99.863	99.863
2.0735	105.93	105.93
2.0735	112.67	112.67
2.0735	119.41	119.41
2.0735	125.69	125.69
2.0735	127.84	127.84
2.0735	130.97	130.97
2.0735	136.57	136.57
2.0735	137.80	137.80
2.0735	137.99	137.99
2.0735	141.65	141.65
2.0735	144.03	144.03
2.0735	147.68	147.68
2.0735	152.64	152.64
2.0735	153.15	153.15
2.0735	155.27	155.27
2.0735	159.72	159.72
2.0735	164.39	164.39
2.0735	165.13	165.13
2.0735	165.17	165.17
2.0735	165.34	165.34
2.0735	165.76	165.76
2.0735	166.71	166.71
2.0735	168.98	168.98
2.0735	171.53	171.53
2.0735	172.48	172.48
2.0735	172.99	172.99
2.0735	173.35	173.35
2.0735	174.60	174.60
2.0735	176.84	176.84
2.0735	178.21	178.21
2.0735	180.67	180.67
2.0735	184.05	184.05
2.0735	188.37	188.37
2.0735	188.78	188.78
2.0735	192.58	192.58
2.0735	194.87	194.87
2.0735	197.72	197.72
2.0735	199.93	199.93
2.0735	203.29	203.29
2.0735	206.14	206.14
2.0735	206.23	206.23
2.0735	207.81	207.81
2.0735	212.50	212.50
2.0735	214.16	214.16
2.0735	217.23	217.23
2.1049	62.597	62.597
2.1049	72.525	72.525
2.1049	83.049	83.049
2.1049	92.905	92.905
2.1049	100.86	100.86
2.1049	107.18	107.18
2.1049	113.63	113.63
2.1049	120.60	120.60
2.1049	126.81	126.81
2.1049	126.86	126.86
2.1049	132.35	132.35
2.1049	136.77	136.77
2.1049	138.03	138.03
2.1049	139.57	139.57
2.1049	143.03	143.03
2.1049	143.14	143.14
2.1049	148.91	148.91
2.1049	152.19	152.19
2.1049	154.05	154.05
2.1049	156.62	156.62
2.1049	161.11	161.11
2.1049	163.45	163.45
2.1049	167.45	167.45
2.1049	167.64	167.64
2.1049	167.69	167.69
2.1049	167.99	167.99
2.1049	168.93	168.93
2.1049	171.10	171.10
2.1049	173.34	173.34
2.1049	174.53	174.53
2.1049	175.33	175.33
2.1049	175.89	175.89
2.1049	175.96	175.96
2.1049	176.85	176.85
2.1049	180.10	180.10
2.1049	182.34	182.34
2.1049	186.13	186.13
2.1049	187.71	187.71
2.1049	189.93	189.93
2.1049	194.18	194.18
2.1049	196.44	196.44
2.1049	198.84	198.84
2.1049	199.10	199.10
2.1049	204.70	204.70
2.1049	204.72	204.72
2.1049	208.63	208.63
2.1049	209.20	209.20
2.1049	211.21	211.21
2.1049	215.46	215.46
2.1049	216.02	216.02
2.1363	63.535	63.535
2.1363	73.426	73.426
2.1363	83.887	83.887
2.1363	93.916	93.916
2.1363	101.87	101.87
2.1363	108.43	108.43
2.1363	114.58	114.58
2.1363	121.78	121.78
2.1363	125.77	125.77
2.1363	128.00	128.00
2.1363	133.73	133.73
2.1363	135.74	135.74
2.1363	139.41	139.41
2.1363	141.21	141.21
2.1363	142.04	142.04
2.1363	144.67	144.67
2.1363	150.15	150.15
2.1363	151.23	151.23
2.1363	155.45	155.45
2.1363	157.94	157.94
2.1363	162.52	162.52
2.1363	162.53	162.53
2.1363	169.11	169.11
2.1363	170.15	170.15
2.1363	170.19	170.19
2.1363	170.44	170.44
2.1363	171.29	171.29
2.1363	173.19	173.19
2.1363	174.93	174.93
2.1363	175.17	175.17
2.1363	176.03	176.03
2.1363	178.18	178.18
2.1363	178.50	178.50
2.1363	179.31	179.31
2.1363	181.77	181.77
2.1363	184.27	184.27
2.1363	186.65	186.65
2.1363	188.21	188.21
2.1363	191.51	191.51
2.1363	195.78	195.78
2.1363	197.75	197.75
2.1363	198.00	198.00
2.1363	200.54	200.54
2.1363	203.22	203.22
2.1363	206.04	206.04
2.1363	209.91	209.91
2.1363	210.56	210.56
2.1363	211.28	211.28
2.1363	214.84	214.84
2.1363	216.74	216.74
2.1677	64.474	64.474
2.1677	74.331	74.331
2.1677	84.725	84.725
2.1677	94.915	94.915
2.1677	102.87	102.87
2.1677	109.69	109.69
2.1677	115.53	115.53
2.1677	122.96	122.96
2.1677	124.74	124.74
2.1677	129.12	129.12
2.1677	134.71	134.71
2.1677	135.11	135.11
2.1677	140.74	140.74
2.1677	141.05	141.05
2.1677	142.89	142.89
2.1677	146.21	146.21
2.1677	150.28	150.28
2.1677	151.42	151.42
2.1677	156.83	156.83
2.1677	159.25	159.25
2.1677	161.59	161.59
2.1677	163.98	163.98
2.1677	170.60	170.60
2.1677	172.66	172.66
2.1677	172.70	172.70
2.1677	172.93	172.93
2.1677	173.69	173.69
2.1677	173.98	173.98
2.1677	175.20	175.20
2.1677	176.92	176.92
2.1677	177.70	177.70
2.1677	180.81	180.81
2.1677	181.05	181.05
2.1677	181.94	181.94
2.1677	183.38	183.38
2.1677	185.59	185.59
2.1677	186.41	186.41
2.1677	190.24	190.24
2.1677	193.16	193.16
2.1677	196.65	196.65
2.1677	197.37	197.37
2.1677	199.53	199.53
2.1677	201.73	201.73
2.1677	202.06	202.06
2.1677	207.34	207.34
2.1677	208.60	208.60
2.1677	212.10	212.10
2.1677	213.67	213.67
2.1677	213.84	213.84
2.1677	218.02	218.02
2.1991	65.413	65.413
2.1991	75.239	75.239
2.1991	85.563	85.563
2.1991	95.902	95.902
2.1991	103.88	103.88
2.1991	110.95	110.95
2.1991	116.48	116.48
2.1991	123.72	123.72
2.1991	124.13	124.13
2.1991	130.22	130.22
2.1991	133.68	133.68
2.1991	136.49	136.49
2.1991	140.06	140.06
2.1991	142.03	142.03
2.1991	144.60	144.60
2.1991	147.77	147.77
2.1991	149.33	149.33
2.1991	152.71	152.71
2.1991	158.19	158.19
2.1991	160.56	160.56
2.1991	160.66	160.66
2.1991	165.45	165.45
2.1991	172.00	172.00
2.1991	173.02	173.02
2.1991	175.17	175.17
2.1991	175.21	175.21
2.1991	175.42	175.42
2.1991	176.05	176.05
2.1991	177.15	177.15
2.1991	178.51	178.51
2.1991	179.65	179.65
2.1991	182.87	182.87
2.1991	183.92	183.92
2.1991	184.52	184.52
2.1991	184.55	184.55
2.1991	185.24	185.24
2.1991	188.64	188.64
2.1991	192.18	192.18
2.1991	194.92	194.92
2.1991	195.56	195.56
2.1991	198.94	198.94
2.1991	200.25	200.25
2.1991	201.05	201.05
2.1991	203.65	203.65
2.1991	207.27	207.27
2.1991	208.62	208.62
2.1991	212.52	212.52
2.1991	213.68	213.68
2.1991	216.41	216.41
2.1991	219.31	219.31
2.2305	66.352	66.352
2.2305	76.150	76.150
2.2305	86.401	86.401
2.2305	96.876	96.876
2.2305	104.90	104.90
2.2305	112.21	112.21
2.2305	117.44	117.44
2.2305	122.69	122.69
2.2305	125.30	125.30
2.2305	131.30	131.30
2.2305	132.66	132.66
2.2305	137.86	137.86
2.2305	139.07	139.07
2.2305	143.30	143.30
2.2305	146.30	146.30
2.2305	148.38	148.38
2.2305	149.35	149.35
2.2305	154.04	154.04
2.2305	159.50	159.50
2.2305	159.74	159.74
2.2305	161.90	161.90
2.2305	166.93	166.93
2.2305	172.07	172.07
2.2305	173.34	173.34
2.2305	177.68	177.68
2.2305	177.72	177.72
2.2305	177.88	177.88
2.2305	178.28	178.28
2.2305	179.12	179.12
2.2305	180.07	180.07
2.2305	181.77	181.77
2.2305	183.46	183.46
2.2305	184.65	184.65
2.2305	186.79	186.79
2.2305	186.84	186.84
2.2305	187.75	187.75
2.2305	190.89	190.89
2.2305	194.01	194.01
2.2305	194.47	194.47
2.2305	196.82	196.82
2.2305	198.77	198.77
2.2305	200.50	200.50
2.2305	202.57	202.57
2.2305	205.30	205.30
2.2305	205.94	205.94
2.2305	209.91	209.91
2.2305	211.39	211.39
2.2305	215.30	215.30
2.2305	218.91	218.91
2.2305	219.70	219.70
2.2619	67.292	67.292
2.2619	77.064	77.064
2.2619	87.240	87.240
2.2619	97.837	97.837
2.2619	105.92	105.92
2.2619	113.46	113.46
2.2619	118.40	118.40
2.2619	121.67	121.67
2.2619	126.46	126.46
2.2619	131.63	131.63
2.2619	132.37	132.37
2.2619	138.09	138.09
2.2619	139.21	139.21
2.2619	144.55	144.55
2.2619	147.44	147.44
2.2619	148.01	148.01
2.2619	150.95	150.95
2.2619	155.40	155.40
2.2619	158.81	158.81
2.2619	160.77	160.77
2.2619	163.26	163.26
2.2619	168.41	168.41
2.2619	171.12	171.12
2.2619	174.65	174.65
2.2619	179.95	179.95
2.2619	180.19	180.19
2.2619	180.24	180.24
2.2619	180.50	180.50
2.2619	181.17	181.17
2.2619	181.80	181.80
2.2619	182.39	182.39
2.2619	183.93	183.93
2.2619	186.29	186.29
2.2619	189.03	189.03
2.2619	189.70	189.70
2.2619	190.54	190.54
2.2619	193.09	193.09
2.2619	193.37	193.37
2.2619	195.79	195.79
2.2619	197.32	197.32
2.2619	198.82	198.82
2.2619	202.06	202.06
2.2619	204.09	204.09
2.2619	204.60	204.60
2.2619	207.02	207.02
2.2619	210.27	210.27
2.2619	211.22	211.22
2.2619	216.94	216.94
2.2619	218.41	218.41
2.2619	221.18	221.18
2.2934	68.233	68.233
2.2934	77.981	77.981
2.2934	88.080	88.080
2.2934	98.787	98.787
2.2934	106.94	106.94
2.2934	114.71	114.71
2.2934	119.38	119.38
2.2934	120.66	120.66
2.2934	127.61	127.61
2.2934	130.61	130.61
2.2934	133.43	133.43
2.2934	137.10	137.10
2.2934	140.55	140.55
2.2934	145.80	145.80
2.2934	146.50	146.50
2.2934	149.69	149.69
2.2934	152.56	152.56
2.2934	156.80	156.80
2.2934	157.90	157.90
2.2934	162.00	162.00
2.2934	164.66	164.66
2.2934	169.91	169.91
2.2934	170.17	170.17
2.2934	175.95	175.95
2.2934	181.33	181.33
2.2934	181.50	181.50
2.2934	182.71	182.71
2.2934	182.74	182.74
2.2934	182.87	182.87
2.2934	183.12	183.12
2.2934	183.96	183.96
2.2934	186.05	186.05
2.2934	187.97	187.97
2.2934	191.28	191.28
2.2934	192.26	192.26
2.2934	192.61	192.61
2.2934	193.38	193.38
2.2934	195.17	195.17
2.2934	195.88	195.88
2.2934	197.61	197.61
2.2934	200.87	200.87
2.2934	203.26	203.26
2.2934	203.63	203.63
2.2934	205.62	205.62
2.2934	208.78	208.78
2.2934	209.16	209.16
2.2934	212.60	212.60
2.2934	217.12	217.12
2.2934	218.59	218.59
2.2934	222.86	222.86
2.3248	69.175	69.175
2.3248	78.901	78.901
2.3248	88.921	88.921
2.3248	99.725	99.725
2.3248	107.97	107.97
2.3248	115.95	115.95
2.3248	119.64	119.64
2.3248	120.37	120.37
2.3248	128.76	128.76
2.3248	129.59	129.59
2.3248	134.48	134.48
2.3248	136.13	136.13
2.3248	141.87	141.87
2.3248	145.56	145.56
2.3248	147.04	147.04
2.3248	151.35	151.35
2.3248	154.19	154.19
2.3248	156.98	156.98
2.3248	158.24	158.24
2.3248	163.21	163.21
2.3248	166.08	166.08
2.3248	169.21	169.21
2.3248	171.40	171.40
2.3248	177.25	177.25
2.3248	180.27	180.27
2.3248	182.85	182.85
2.3248	184.67	184.67
2.3248	185.22	185.22
2.3248	185.27	185.27
2.3248	185.51	185.51
2.3248	186.32	186.32
2.3248	188.05	188.05
2.3248	189.82	189.82
2.3248	191.13	191.13
2.3248	193.54	193.54
2.3248	194.46	194.46
2.3248	195.53	195.53
2.3248	196.20	196.20
2.3248	197.10	197.10
2.3248	199.58	199.58
2.3248	201.91	201.91
2.3248	202.88	202.88
2.3248	205.26	205.26
2.3248	207.19	207.19
2.3248	208.05	208.05
2.3248	210.55	210.55
2.3248	214.05	214.05
2.3248	215.84	215.84
2.3248	220.21	220.21
2.3248	224.30	224.30
2.3562	70.117	70.117
2.3562	79.823	79.823
2.3562	89.764	89.764
2.3562	100.65	100.65
2.3562	109.01	109.01
2.3562	117.17	117.17
2.3562	118.63	118.63
2.3562	121.38	121.38
2.3562	128.57	128.57
2.3562	129.90	129.90
2.3562	135.15	135.15
2.3562	135.53	135.53
2.3562	143.16	143.16
2.3562	144.63	144.63
2.3562	148.28	148.28
2.3562	152.98	152.98
2.3562	155.84	155.84
2.3562	156.07	156.07
2.3562	159.72	159.72
2.3562	164.39	164.39
2.3562	167.53	167.53
2.3562	168.26	168.26
2.3562	172.89	172.89
2.3562	178.55	178.55
2.3562	179.20	179.20
2.3562	184.10	184.10
2.3562	186.34	186.34
2.3562	187.74	187.74
2.3562	187.78	187.78
2.3562	188.00	188.00
2.3562	188.71	188.71
2.3562	189.93	189.93
2.3562	189.98	189.98
2.3562	191.89	191.89
2.3562	193.07	193.07
2.3562	195.76	195.76
2.3562	198.46	198.46
2.3562	198.63	198.63
2.3562	199.31	199.31
2.3562	200.57	200.57
2.3562	201.67	201.67
2.3562	204.79	204.79
2.3562	206.96	206.96
2.3562	206.97	206.97
2.3562	208.84	208.84
2.3562	212.30	212.30
2.3562	214.56	214.56
2.3562	215.61	215.61
2.3562	221.79	221.79
2.3562	223.86	223.86
2.3876	71.060	71.060
2.3876	80.748	80.748
2.3876	90.608	90.608
2.3876	101.57	101.57
2.3876	110.05	110.05
2.3876	117.61	117.61
2.3876	118.38	118.38
2.3876	122.42	122.42
2.3876	127.55	127.55
2.3876	131.03	131.03
2.3876	134.18	134.18
2.3876	136.58	136.58
2.3876	143.70	143.70
2.3876	144.44	144.44
2.3876	149.52	149.52
2.3876	154.58	154.58
2.3876	155.17	155.17
2.3876	157.51	157.51
2.3876	161.23	161.23
2.3876	165.56	165.56
2.3876	167.31	167.31
2.3876	168.99	168.99
2.3876	174.37	174.37
2.3876	178.14	178.14
2.3876	179.87	179.87
2.3876	185.29	185.29
2.3876	187.96	187.96
2.3876	188.81	188.81
2.3876	190.25	190.25
2.3876	190.29	190.29
2.3876	190.48	190.48
2.3876	191.01	191.01
2.3876	191.71	191.71
2.3876	191.85	191.85
2.3876	194.11	194.11
2.3876	197.89	197.89
2.3876	199.22	199.22
2.3876	200.40	200.40
2.3876	201.40	201.40
2.3876	202.12	202.12
2.3876	203.83	203.83
2.3876	205.87	205.87
2.3876	206.59	206.59
2.3876	208.74	208.74
2.3876	210.63	210.63
2.3876	213.30	213.30
2.3876	214.02	214.02
2.3876	217.30	217.30
2.3876	222.70	222.70
2.3876	223.32	223.32
2.4190	72.004	72.004
2.4190	81.676	81.676
2.4190	91.455	91.455
2.4190	102.48	102.48
2.4190	111.09	111.09
2.4190	116.61	116.61
2.4190	119.56	119.56
2.4190	123.48	123.48
2.4190	126.53	126.53
2.4190	132.14	132.14
2.4190	133.21	133.21
2.4190	137.63	137.63
2.4190	142.77	142.77
2.4190	145.69	145.69
2.4190	150.76	150.76
2.4190	154.26	154.26
2.4190	156.14	156.14
2.4190	159.20	159.20
2.4190	162.78	162.78
2.4190	166.35	166.35
2.4190	166.73	166.73
2.4190	170.45	170.45
2.4190	175.85	175.85
2.4190	177.07	177.07
2.4190	181.20	181.20
2.4190	186.45	186.45
2.4190	187.60	187.60
2.4190	189.54	189.54
2.4190	190.40	190.40
2.4190	192.77	192.77
2.4190	192.79	192.79
2.4190	192.87	192.87
2.4190	193.16	193.16
2.4190	194.03	194.03
2.4190	196.40	196.40
2.4190	197.87	197.87
2.4190	199.87	199.87
2.4190	202.19	202.19
2.4190	204.36	204.36
2.4190	204.78	204.78
2.4190	204.98	204.98
2.4190	205.95	205.95
2.4190	208.32	208.32
2.4190	210.52	210.52
2.4190	212.04	212.04
2.4190	212.58	212.58
2.4190	215.71	215.71
2.4190	219.12	219.12
2.4190	221.54	221.54
2.4190	224.80	224.80
2.4504	72.948	72.948
2.4504	82.606	82.606
2.4504	92.303	92.303
2.4504	103.37	103.37
2.4504	112.13	112.13
2.4504	115.60	115.60
2.4504	120.72	120.72
2.4504	124.58	124.58
2.4504	125.52	125.52
2.4504	132.24	132.24
2.4504	133.25	133.25
2.4504	138.68	138.68
2.4504	141.85	141.85
2.4504	146.91	146.91
2.4504	152.00	152.00
2.4504	153.36	153.36
2.4504	157.66	157.66
2.4504	160.90	160.90
2.4504	164.35	164.35
2.4504	165.40	165.40
2.4504	167.93	167.93
2.4504	171.92	171.92
2.4504	176.01	176.01
2.4504	177.33	177.33
2.4504	182.55	182.55
2.4504	186.35	186.35
2.4504	187.58	187.58
2.4504	189.14	189.14
2.4504	191.07	191.07
2.4504	194.76	194.76
2.4504	195.29	195.29
2.4504	195.33	195.33
2.4504	195.57	195.57
2.4504	196.42	196.42
2.4504	196.52	196.52
2.4504	198.71	198.71
2.4504	201.67	201.67
2.4504	203.70	203.70
2.4504	204.11	204.11
2.4504	207.32	207.32
2.4504	207.59	207.59
2.4504	208.20	208.20
2.4504	210.08	210.08
2.4504	210.79	210.79
2.4504	212.31	212.31
2.4504	214.66	214.66
2.4504	217.41	217.41
2.4504	220.37	220.37
2.4504	221.04	221.04
2.4504	226.22	226.22
2.4819	73.893	73.893
2.4819	83.539	83.539
2.4819	93.153	93.153
2.4819	104.26	104.26
2.4819	113.17	113.17
2.4819	114.59	114.59
2.4819	121.85	121.85
2.4819	124.51	124.51
2.4819	125.71	125.71
2.4819	131.27	131.27
2.4819	134.35	134.35
2.4819	139.74	139.74
2.4819	140.93	140.93
2.4819	148.12	148.12
2.4819	152.46	152.46
2.4819	153.23	153.23
2.4819	159.16	159.16
2.4819	162.60	162.60
2.4819	164.44	164.44
2.4819	165.94	165.94
2.4819	169.14	169.14
2.4819	173.39	173.39
2.4819	174.95	174.95
2.4819	178.80	178.80
2.4819	183.91	183.91
2.4819	185.06	185.06
2.4819	187.92	187.92
2.4819	188.70	188.70
2.4819	192.57	192.57
2.4819	195.18	195.18
2.4819	196.54	196.54
2.4819	197.80	197.80
2.4819	197.84	197.84
2.4819	198.07	198.07
2.4819	198.86	198.86
2.4819	201.01	201.01
2.4819	202.62	202.62
2.4819	203.34	203.34
2.4819	206.16	206.16
2.4819	209.48	209.48
2.4819	209.55	209.55
2.4819	210.30	210.30
2.4819	210.95	210.95
2.4819	211.93	211.93
2.4819	214.14	214.14
2.4819	216.78	216.78
2.4819	219.18	219.18
2.4819	219.20	219.20
2.4819	223.05	223.05
2.4819	226.28	226.28
2.5133	74.839	74.839
2.5133	84.474	84.474
2.5133	94.006	94.006
2.5133	105.15	105.15
2.5133	113.59	113.59
2.5133	114.21	114.21
2.5133	122.96	122.96
2.5133	123.50	123.50
2.5133	126.87	126.87
2.5133	130.31	130.31
2.5133	135.43	135.43
2.5133	140.01	140.01
2.5133	140.80	140.80
2.5133	149.30	149.30
2.5133	151.56	151.56
2.5133	154.47	154.47
2.5133	160.62	160.62
2.5133	163.48	163.48
2.5133	164.31	164.31
2.5133	167.55	167.55
2.5133	170.40	170.40
2.5133	173.90	173.90
2.5133	174.85	174.85
2.5133	180.28	180.28
2.5133	183.73	183.73
2.5133	185.30	185.30
2.5133	186.74	186.74
2.5133	189.82	189.82
2.5133	193.84	193.84
2.5133	194.03	194.03
2.5133	198.31	198.31
2.5133	200.32	200.32
2.5133	200.36	200.36
2.5133	200.58	200.58
2.5133	201.33	201.33
2.5133	201.53	201.53
2.5133	203.23	203.23
2.5133	205.00	205.00
2.5133	208.25	208.25
2.5133	208.32	208.32
2.5133	211.09	211.09
2.5133	213.29	213.29
2.5133	213.52	213.52
2.5133	214.13	214.13
2.5133	216.06	216.06
2.5133	218.03	218.03
2.5133	218.86	218.86
2.5133	221.09	221.09
2.5133	225.04	225.04
2.5133	225.10	225.10
2.5447	75.785	75.785
2.5447	85.411	85.411
2.5447	94.861	94.861
2.5447	106.02	106.02
2.5447	112.59	112.59
2.5447	115.25	115.25
2.5447	122.49	122.49
2.5447	124.04	124.04
2.5447	128.08	128.08
2.5447	129.35	129.35
2.5447	136.50	136.50
2.5447	139.10	139.10
2.5447	141.88	141.88
2.5447	150.45	150.45
2.5447	150.67	150.67
2.5447	155.71	155.71
2.5447	162.07	162.07
2.5447	162.51	162.51
2.5447	166.00	166.00
2.5447	169.16	169.16
2.5447	171.70	171.70
2.5447	172.84	172.84
2.5447	176.30	176.30
2.5447	181.75	181.75
2.5447	182.37	182.37
2.5447	185.60	185.60
2.5447	186.70	186.70
2.5447	190.95	190.95
2.5447	192.51	192.51
2.5447	195.47	195.47
2.5447	200.05	200.05
2.5447	200.45	200.45
2.5447	202.84	202.84
2.5447	202.88	202.88
2.5447	203.09	203.09
2.5447	203.79	203.79
2.5447	205.27	205.27
2.5447	206.83	206.83
2.5447	207.10	207.10
2.5447	210.30	210.30
2.5447	212.64	212.64
2.5447	215.44	215.44
2.5447	216.29	216.29
2.5447	216.85	216.85
2.5447	216.94	216.94
2.5447	218.09	218.09
2.5447	220.83	220.83
2.5447	223.20	223.20
2.5447	223.81	223.81
2.5447	227.16	227.16
2.5761	76.732	76.732
2.5761	86.351	86.351
2.5761	95.718	95.718
2.5761	106.90	106.90
2.5761	111.59	111.59
2.5761	116.29	116.29
2.5761	121.48	121.48
2.5761	125.10	125.10
2.5761	128.39	128.39
2.5761	129.31	129.31
2.5761	137.55	137.55
2.5761	138.19	138.19
2.5761	142.97	142.97
2.5761	149.77	149.77
2.5761	151.59	151.59
2.5761	156.94	156.94
2.5761	161.55	161.55
2.5761	163.49	163.49
2.5761	167.67	167.67
2.5761	170.79	170.79
2.5761	171.79	171.79
2.5761	173.06	173.06
2.5761	177.73	177.73
2.5761	180.99	180.99
2.5761	183.23	183.23
2.5761	184.49	184.49
2.5761	188.11	188.11
2.5761	191.19	191.19
2.5761	192.09	192.09
2.5761	196.88	196.88
2.5761	199.36	199.36
2.5761	201.78	201.78
2.5761	205.36	205.36
2.5761	205.40	205.40
2.5761	205.59	205.59
2.5761	205.90	205.90
2.5761	206.20	206.20
2.5761	207.09	207.09
2.5761	208.91	208.91
2.5761	212.21	212.21
2.5761	214.25	214.25
2.5761	215.67	215.67
2.5761	217.23	217.23
2.5761	219.30	219.30
2.5761	219.72	219.72
2.5761	220.29	220.29
2.5761	222.58	222.58
2.5761	222.74	222.74
2.5761	225.48	225.48
2.5761	229.17	229.17
2.6075	77.680	77.680
2.6075	87.294	87.294
2.6075	96.578	96.578
2.6075	107.76	107.76
2.6075	110.60	110.60
2.6075	117.32	117.32
2.6075	120.47	120.47
2.6075	126.14	126.14
2.6075	127.44	127.44
2.6075	130.57	130.57
2.6075	137.28	137.28
2.6075	138.60	138.60
2.6075	144.07	144.07
2.6075	148.88	148.88
2.6075	152.71	152.71
2.6075	158.18	158.18
2.6075	160.58	160.58
2.6075	164.89	164.89
2.6075	169.30	169.30
2.6075	170.74	170.74
2.6075	172.43	172.43
2.6075	174.49	174.49
2.6075	179.16	179.16
2.6075	179.58	179.58
2.6075	183.39	183.39
2.6075	184.71	184.71
2.6075	189.53	189.53
2.6075	189.87	189.87
2.6075	193.25	193.25
2.6075	198.26	198.26
2.6075	198.28	198.28
2.6075	203.49	203.49
2.6075	204.70	204.70
2.6075	207.88	207.88
2.6075	207.92	207.92
2.6075	208.06	208.06
2.6075	208.35	208.35
2.6075	209.06	209.06
2.6075	211.15	211.15
2.6075	213.90	213.90
2.6075	214.48	214.48
2.6075	216.03	216.03
2.6075	218.99	218.99
2.6075	221.34	221.34
2.6075	221.95	221.95
2.6075	222.33	222.33
2.6075	223.04	223.04
2.6075	224.67	224.67
2.6075	227.85	227.85
2.6075	229.57	229.57
2.6389	78.629	78.629
2.6389	88.238	88.238
2.6389	97.440	97.440
2.6389	108.63	108.63
2.6389	109.60	109.60
2.6389	118.35	118.35
2.6389	119.47	119.47
2.6389	126.48	126.48
2.6389	127.16	127.16
2.6389	131.85	131.85
2.6389	136.37	136.37
2.6389	139.63	139.63
2.6389	145.18	145.18
2.6389	147.99	147.99
2.6389	153.81	153.81
2.6389	159.41	159.41
2.6389	159.60	159.60
2.6389	166.27	166.27
2.6389	169.69	169.69
2.6389	170.88	170.88
2.6389	174.09	174.09
2.6389	175.98	175.98
2.6389	178.17	178.17
2.6389	180.58	180.58
2.6389	182.32	182.32
2.6389	186.19	186.19
2.6389	188.57	188.57
2.6389	190.95	190.95
2.6389	194.44	194.44
2.6389	197.17	197.17
2.6389	199.66	199.66
2.6389	203.51	203.51
2.6389	205.17	205.17
2.6389	209.91	209.91
2.6389	210.41	210.41
2.6389	210.45	210.45
2.6389	210.67	210.67
2.6389	211.42	211.42
2.6389	213.29	213.29
2.6389	213.42	213.42
2.6389	215.43	215.43
2.6389	217.95	217.95
2.6389	220.11	220.11
2.6389	220.75	220.75
2.6389	223.91	223.91
2.6389	225.37	225.37
2.6389	225.94	225.94
2.6389	226.74	226.74
2.6389	228.17	228.17
2.6389	230.25	230.25
2.6704	79.579	79.579
2.6704	89.185	89.185
2.6704	98.305	98.305
2.6704	108.61	108.61
2.6704	109.49	109.49
2.6704	118.47	118.47
2.6704	119.37	119.37
2.6704	125.53	125.53
2.6704	128.18	128.18
2.6704	133.15	133.15
2.6704	135.47	135.47
2.6704	140.64	140.64
2.6704	146.30	146.30
2.6704	147.11	147.11
2.6704	154.89	154.89
2.6704	158.62	158.62
2.6704	160.63	160.63
2.6704	167.63	167.63
2.6704	168.65	168.65
2.6704	172.41	172.41
2.6704	175.77	175.77
2.6704	176.74	176.74
2.6704	177.53	177.53
2.6704	181.25	181.25
2.6704	181.98	181.98
2.6704	187.28	187.28
2.6704	187.68	187.68
2.6704	192.37	192.37
2.6704	195.66	195.66
2.6704	196.06	196.06
2.6704	201.02	201.02
2.6704	202.34	202.34
2.6704	206.82	206.82
2.6704	211.46	211.46
2.6704	212.09	212.09
2.6704	212.93	212.93
2.6704	212.97	212.97
2.6704	213.17	213.17
2.6704	213.87	213.87
2.6704	215.59	215.59
2.6704	216.96	216.96
2.6704	218.87	218.87
2.6704	219.92	219.92
2.6704	222.53	222.53
2.6704	225.78	225.78
2.6704	226.76	226.76
2.6704	228.41	228.41
2.6704	228.55	228.55
2.6704	229.23	229.23
2.6704	232.56	232.56
2.7018	80.530	80.530
2.7018	90.134	90.134
2.7018	99.173	99.173
2.7018	107.62	107.62
2.7018	110.34	110.34
2.7018	117.47	117.47
2.7018	120.38	120.38
2.7018	124.59	124.59
2.7018	129.19	129.19
2.7018	134.47	134.47
2.7018	134.57	134.57
2.7018	141.65	141.65
2.7018	146.22	146.22
2.7018	147.44	147.44
2.7018	155.95	155.95
2.7018	157.64	157.64
2.7018	161.86	161.86
2.7018	167.61	167.61
2.7018	168.97	168.97
2.7018	173.89	173.89
2.7018	175.31	175.31
2.7018	177.48	177.48
2.7018	179.12	179.12
2.7018	180.18	180.18
2.7018	183.39	183.39
2.7018	185.99	185.99
2.7018	189.16	189.16
2.7018	193.79	193.79
2.7018	194.95	194.95
2.7018	196.92	196.92
2.7018	201.18	201.18
2.7018	202.37	202.37
2.7018	208.44	208.44
2.7018	210.88	210.88
2.7018	212.99	212.99
2.7018	215.46	215.46
2.7018	215.49	215.49
2.7018	215.69	215.69
2.7018	216.33	216.33
2.7018	217.43	217.43
2.7018	217.63	217.63
2.7018	218.82	218.82
2.7018	221.85	221.85
2.7018	224.37	224.37
2.7018	225.35	225.35
2.7018	227.59	227.59
2.7018	230.79	230.79
2.7018	230.97	230.97
2.7018	231.48	231.48
2.7018	232.17	232.17
2.7332	81.481	81.481
2.7332	91.085	91.085
2.7332	100.04	100.04
2.7332	106.63	106.63
2.7332	111.20	111.20
2.7332	116.47	116.47
2.7332	121.39	121.39
2.7332	123.64	123.64
2.7332	130.20	130.20
2.7332	133.68	133.68
2.7332	135.80	135.80
2.7332	142.64	142.64
2.7332	145.33	145.33
2.7332	148.60	148.60
2.7332	156.65	156.65
2.7332	157.01	157.01
2.7332	163.08	163.08
2.7332	166.58	166.58
2.7332	170.29	170.29
2.7332	173.87	173.87
2.7332	175.33	175.33
2.7332	179.11	179.11
2.7332	179.22	179.22
2.7332	180.74	180.74
2.7332	184.73	184.73
2.7332	184.80	184.80
2.7332	190.64	190.64
2.7332	193.83	193.83
2.7332	195.20	195.20
2.7332	198.23	198.23
2.7332	200.02	200.02
2.7332	203.71	203.71
2.7332	209.67	209.67
2.7332	210.03	210.03
2.7332	214.52	214.52
2.7332	216.39	216.39
2.7332	217.98	217.98
2.7332	218.02	218.02
2.7332	218.19	218.19
2.7332	218.58	218.58
2.7332	219.12	219.12
2.7332	221.00	221.00
2.7332	223.70	223.70
2.7332	223.92	223.92
2.7332	226.27	226.27
2.7332	229.24	229.24
2.7332	229.39	229.39
2.7332	231.70	231.70
2.7332	233.00	233.00
2.7332	234.16	234.16
2.7646	82.434	82.434
2.7646	92.038	92.038
2.7646	100.92	100.92
2.7646	105.65	105.65
2.7646	112.05	112.05
2.7646	115.47	115.47
2.7646	122.39	122.39
2.7646	122.70	122.70
2.7646	131.21	131.21
2.7646	132.79	132.79
2.7646	137.14	137.14
2.7646	143.63	143.63
2.7646	144.45	144.45
2.7646	149.76	149.76
2.7646	155.66	155.66
2.7646	158.05	158.05
2.7646	164.29	164.29
2.7646	165.54	165.54
2.7646	171.59	171.59
2.7646	172.44	172.44
2.7646	176.74	176.74
2.7646	178.04	178.04
2.7646	180.99	180.99
2.7646	182.39	182.39
2.7646	183.48	183.48
2.7646	186.21	186.21
2.7646	192.12	192.12
2.7646	192.71	192.71
2.7646	196.62	196.62
2.7646	198.88	198.88
2.7646	199.57	199.57
2.7646	205.04	205.04
2.7646	208.45	208.45
2.7646	211.59	211.59
2.7646	215.14	215.14
2.7646	216.05	216.05
2.7646	220.01	220.01
2.7646	220.51	220.51
2.7646	220.55	220.55
2.7646	220.75	220.75
2.7646	221.44	221.44
2.7646	222.49	222.49
2.7646	223.27	223.27
2.7646	225.48	225.48
2.7646	227.46	227.46
2.7646	228.22	228.22
2.7646	229.84	229.84
2.7646	231.23	231.23
2.7646	232.60	232.60
2.7646	235.18	235.18
2.7960	83.387	83.387
2.7960	92.993	92.993
2.7960	101.79	101.79
2.7960	104.66	104.66
2.7960	112.90	112.90
2.7960	114.47	114.47
2.7960	121.76	121.76
2.7960	123.38	123.38
2.7960	131.90	131.90
2.7960	132.21	132.21
2.7960	138.48	138.48
2.7960	143.56	143.56
2.7960	144.62	144.62
2.7960	150.94	150.94
2.7960	154.67	154.67
2.7960	159.08	159.08
2.7960	164.51	164.51
2.7960	165.51	165.51
2.7960	171.01	171.01
2.7960	172.86	172.86
2.7960	176.97	176.97
2.7960	178.12	178.12
2.7960	182.25	182.25
2.7960	182.78	182.78
2.7960	184.05	184.05
2.7960	187.64	187.64
2.7960	191.57	191.57
2.7960	193.59	193.59
2.7960	197.75	197.75
2.7960	198.04	198.04
2.7960	200.96	200.96
2.7960	206.36	206.36
2.7960	207.22	207.22
2.7960	213.12	213.12
2.7960	213.89	213.89
2.7960	217.58	217.58
2.7960	221.05	221.05
2.7960	221.32	221.32
2.7960	223.04	223.04
2.7960	223.07	223.07
2.7960	223.26	223.26
2.7960	223.91	223.91
2.7960	225.50	225.50
2.7960	225.66	225.66
2.7960	227.25	227.25
2.7960	227.99	227.99
2.7960	230.19	230.19
2.7960	231.09	231.09
2.7960	233.12	233.12
2.7960	234.10	234.10
2.8274	84.341	84.341
2.8274	93.950	93.950
2.8274	102.67	102.67
2.8274	103.68	103.68
2.8274	113.48	113.48
2.8274	113.75	113.75
2.8274	120.82	120.82
2.8274	124.36	124.36
2.8274	131.01	131.01
2.8274	133.22	133.22
2.8274	139.83	139.83
2.8274	142.68	142.68
2.8274	145.60	145.60
2.8274	152.12	152.12
2.8274	153.67	153.67
2.8274	160.09	160.09
2.8274	163.48	163.48
2.8274	166.72	166.72
2.8274	169.58	169.58
2.8274	174.12	174.12
2.8274	175.88	175.88
2.8274	179.50	179.50
2.8274	181.04	181.04
2.8274	184.56	184.56
2.8274	185.71	185.71
2.8274	189.09	189.09
2.8274	190.44	190.44
2.8274	195.04	195.04
2.8274	196.62	196.62
2.8274	199.46	199.46
2.8274	202.37	202.37
2.8274	205.98	205.98
2.8274	207.68	207.68
2.8274	212.64	212.64
2.8274	214.62	214.62
2.8274	219.12	219.12
2.8274	219.60	219.60
2.8274	222.62	222.62
2.8274	223.83	223.83
2.8274	225.57	225.57
2.8274	225.60	225.60
2.8274	225.78	225.78
2.8274	226.15	226.15
2.8274	226.38	226.38
2.8274	227.58	227.58
2.8274	229.12	229.12
2.8274	229.61	229.61
2.8274	232.18	232.18
2.8274	232.52	232.52
2.8274	235.09	235.09
2.8588	85.296	85.296
2.8588	94.909	94.909
2.8588	102.70	102.70
2.8588	103.55	103.55
2.8588	112.49	112.49
2.8588	114.61	114.61
2.8588	119.89	119.89
2.8588	125.34	125.34
2.8588	130.13	130.13
2.8588	134.23	134.23
2.8588	141.19	141.19
2.8588	141.80	141.80
2.8588	146.57	146.57
2.8588	152.66	152.66
2.8588	153.32	153.32
2.8588	161.11	161.11
2.8588	162.46	162.46
2.8588	167.93	167.93
2.8588	168.15	168.15
2.8588	174.78	174.78
2.8588	175.35	175.35
2.8588	179.85	179.85
2.8588	180.87	180.87
2.8588	186.34	186.34
2.8588	187.37	187.37
2.8588	189.29	189.29
2.8588	190.57	190.57
2.8588	195.51	195.51
2.8588	196.48	196.48
2.8588	200.91	200.91
2.8588	203.81	203.81
2.8588	204.73	204.73
2.8588	209.01	209.01
2.8588	211.38	211.38
2.8588	216.10	216.10
2.8588	218.13	218.13
2.8588	220.65	220.65
2.8588	221.99	221.99
2.8588	223.92	223.92
2.8588	224.33	224.33
2.8588	228.10	228.10
2.8588	228.13	228.13
2.8588	228.15	228.15
2.8588	228.30	228.30
2.8588	228.76	228.76
2.8588	229.47	229.47
2.8588	230.93	230.93
2.8588	231.21	231.21
2.8588	234.15	234.15
2.8588	235.99	235.99
2.8903	86.253	86.253
2.8903	95.870	95.870
2.8903	101.72	101.72
2.8903	104.44	104.44
2.8903	111.49	111.49
2.8903	115.46	115.46
2.8903	118.96	118.96
2.8903	126.30	126.30
2.8903	129.25	129.25
2.8903	135.24	135.24
2.8903	140.91	140.91
2.8903	142.54	142.54
2.8903	147.56	147.56
2.8903	151.65	151.65
2.8903	154.52	154.52
2.8903	161.43	161.43
2.8903	162.11	162.11
2.8903	166.74	166.74
2.8903	169.14	169.14
2.8903	173.67	173.67
2.8903	176.55	176.55
2.8903	178.69	178.69
2.8903	182.23	182.23
2.8903	188.08	188.08
2.8903	188.14	188.14
2.8903	189.06	189.06
2.8903	192.09	192.09
2.8903	194.40	194.40
2.8903	197.91	197.91
2.8903	202.38	202.38
2.8903	203.48	203.48
2.8903	205.27	205.27
2.8903	210.12	210.12
2.8903	210.33	210.33
2.8903	216.65	216.65
2.8903	217.55	217.55
2.8903	220.13	220.13
2.8903	222.16	222.16
2.8903	222.52	222.52
2.8903	225.24	225.24
2.8903	226.72	226.72
2.8903	229.34	229.34
2.8903	230.56	230.56
2.8903	230.63	230.63
2.8903	230.68	230.68
2.8903	230.91	230.91
2.8903	231.61	231.61
2.8903	233.45	233.45
2.8903	234.35	234.35
2.8903	236.12	236.12
2.9217	87.210	87.210
2.9217	96.833	96.833
2.9217	100.74	100.74
2.9217	105.32	105.32
2.9217	110.50	110.50
2.9217	116.31	116.31
2.9217	118.03	118.03
2.9217	127.26	127.26
2.9217	128.37	128.37
2.9217	136.26	136.26
2.9217	140.02	140.02
2.9217	143.89	143.89
2.9217	148.54	148.54
2.9217	150.64	150.64
2.9217	155.73	155.73
2.9217	160.40	160.40
2.9217	163.11	163.11
2.9217	165.33	165.33
2.9217	170.34	170.34
2.9217	172.54	172.54
2.9217	177.54	177.54
2.9217	177.74	177.74
2.9217	183.60	183.60
2.9217	186.98	186.98
2.9217	189.75	189.75
2.9217	190.78	190.78
2.9217	193.30	193.30
2.9217	193.65	193.65
2.9217	199.32	199.32
2.9217	202.21	202.21
2.9217	203.87	203.87
2.9217	206.74	206.74
2.9217	208.85	208.85
2.9217	211.67	211.67
2.9217	215.14	215.14
2.9217	218.28	218.28
2.9217	218.98	218.98
2.9217	220.73	220.73
2.9217	223.67	223.67
2.9217	225.29	225.29
2.9217	226.59	226.59
2.9217	227.74	227.74
2.9217	232.12	232.12
2.9217	232.71	232.71
2.9217	233.16	233.16
2.9217	233.20	233.20
2.9217	233.39	233.39
2.9217	234.04	234.04
2.9217	235.74	235.74
2.9217	237.75	237.75
2.9531	88.169	88.169
2.9531	97.798	97.798
2.9531	99.768	99.768
2.9531	106.21	106.21
2.9531	109.52	109.52
2.9531	117.11	117.11
2.9531	117.16	117.16
2.9531	127.49	127.49
2.9531	128.21	128.21
2.9531	137.28	137.28
2.9531	139.14	139.14
2.9531	145.23	145.23
2.9531	149.54	149.54
2.9531	149.62	149.62
2.9531	156.95	156.95
2.9531	159.37	159.37
2.9531	163.94	163.94
2.9531	164.10	164.10
2.9531	171.40	171.40
2.9531	171.55	171.55
2.9531	176.42	176.42
2.9531	178.91	178.91
2.9531	184.96	184.96
2.9531	185.81	185.81
2.9531	191.33	191.33
2.9531	192.20	192.20
2.9531	192.55	192.55
2.9531	195.26	195.26
2.9531	200.72	200.72
2.9531	200.94	200.94
2.9531	205.39	205.39
2.9531	207.57	207.57
2.9531	208.22	208.22
2.9531	213.03	213.03
2.9531	213.60	213.60
2.9531	216.42	216.42
2.9531	218.97	218.97
2.9531	220.40	220.40
2.9531	223.85	223.85
2.9531	225.16	225.16
2.9531	226.15	226.15
2.9531	227.96	227.96
2.9531	231.09	231.09
2.9531	233.51	233.51
2.9531	235.70	235.70
2.9531	235.73	235.73
2.9531	235.91	235.91
2.9531	236.40	236.40
2.9531	236.52	236.52
2.9531	238.03	238.03
2.9845	89.128	89.128
2.9845	98.765	98.765
2.9845	98.794	98.794
2.9845	107.11	107.11
2.9845	108.53	108.53
2.9845	116.18	116.18
2.9845	118.01	118.01
2.9845	126.62	126.62
2.9845	129.15	129.15
2.9845	138.25	138.25
2.9845	138.30	138.30
2.9845	146.56	146.56
2.9845	148.60	148.60
2.9845	150.56	150.56
2.9845	158.17	158.17
2.9845	158.33	158.33
2.9845	162.56	162.56
2.9845	165.10	165.10
2.9845	170.24	170.24
2.9845	172.75	172.75
2.9845	175.32	175.32
2.9845	180.07	180.07
2.9845	184.64	184.64
2.9845	186.33	186.33
2.9845	191.11	191.11
2.9845	192.84	192.84
2.9845	194.36	194.36
2.9845	196.91	196.91
2.9845	199.65	199.65
2.9845	202.11	202.11
2.9845	206.29	206.29
2.9845	206.93	206.93
2.9845	209.70	209.70
2.9845	212.03	212.03
2.9845	214.40	214.40
2.9845	214.57	214.57
2.9845	217.24	217.24
2.9845	221.79	221.79
2.9845	222.41	222.41
2.9845	224.57	224.57
2.9845	226.65	226.65
2.9845	229.36	229.36
2.9845	229.47	229.47
2.9845	234.85	234.85
2.9845	235.06	235.06
2.9845	238.24	238.24
2.9845	238.27	238.27
2.9845	238.44	238.44
2.9845	239.00	239.00
2.9845	240.26	240.26
3.0159	90.089	90.089
3.0159	97.821	97.821
3.0159	99.734	99.734
3.0159	107.55	107.55
3.0159	108.00	108.00
3.0159	115.26	115.26
3.0159	118.86	118.86
3.0159	125.75	125.75
3.0159	130.09	130.09
3.0159	137.36	137.36
3.0159	139.33	139.33
3.0159	147.57	147.57
3.0159	147.87	147.87
3.0159	151.59	151.59
3.0159	157.28	157.28
3.0159	159.39	159.39
3.0159	161.20	161.20
3.0159	166.09	166.09
3.0159	169.07	169.07
3.0159	173.95	173.95
3.0159	174.25	174.25
3.0159	181.21	181.21
3.0159	183.47	183.47
3.0159	187.69	187.69
3.0159	190.02	190.02
3.0159	194.30	194.30
3.0159	196.19	196.19
3.0159	198.36	198.36
3.0159	198.59	198.59
3.0159	203.51	203.51
3.0159	205.01	205.01
3.0159	208.49	208.49
3.0159	210.42	210.42
3.0159	211.17	211.17
3.0159	212.73	212.73
3.0159	215.56	215.56
3.0159	215.79	215.79
3.0159	220.94	220.94
3.0159	223.01	223.01
3.0159	223.16	223.16
3.0159	227.87	227.87
3.0159	228.13	228.13
3.0159	230.77	230.77
3.0159	233.73	233.73
3.0159	236.16	236.16
3.0159	239.96	239.96
3.0159	240.77	240.77
3.0159	240.80	240.80
3.0159	240.97	240.97
3.0159	241.46	241.46
3.0473	91.051	91.051
3.0473	96.850	96.850
3.0473	100.70	100.70
3.0473	106.56	106.56
3.0473	108.90	108.90
3.0473	114.35	114.35
3.0473	119.72	119.72
3.0473	124.88	124.88
3.0473	131.01	131.01
3.0473	136.46	136.46
3.0473	140.36	140.36
3.0473	146.54	146.54
3.0473	149.16	149.16
3.0473	152.65	152.65
3.0473	156.21	156.21
3.0473	159.86	159.86
3.0473	160.61	160.61
3.0473	167.08	167.08
3.0473	167.89	167.89
3.0473	173.18	173.18
3.0473	175.15	175.15
3.0473	182.29	182.29
3.0473	182.33	182.33
3.0473	188.93	188.93
3.0473	189.04	189.04
3.0473	195.71	195.71
3.0473	197.06	197.06
3.0473	198.03	198.03
3.0473	200.30	200.30
3.0473	203.71	203.71
3.0473	204.91	204.91
3.0473	208.76	208.76
3.0473	210.06	210.06
3.0473	210.91	210.91
3.0473	212.63	212.63
3.0473	213.91	213.91
3.0473	217.21	217.21
3.0473	219.45	219.45
3.0473	221.48	221.48
3.0473	224.51	224.51
3.0473	226.28	226.28
3.0473	229.61	229.61
3.0473	232.18	232.18
3.0473	232.42	232.42
3.0473	237.47	237.47
3.0473	238.51	238.51
3.0473	240.59	240.59
3.0473	243.31	243.31
3.0473	243.34	243.34
3.0473	243.48	243.48
3.0788	92.014	92.014
3.0788	95.880	95.880
3.0788	101.68	101.68
3.0788	105.58	105.58
3.0788	109.80	109.80
3.0788	113.43	113.43
3.0788	120.57	120.57
3.0788	124.02	124.02
3.0788	131.93	131.93
3.0788	135.57	135.57
3.0788	141.39	141.39
3.0788	145.52	145.52
3.0788	150.43	150.43
3.0788	153.75	153.75
3.0788	155.12	155.12
3.0788	158.56	158.56
3.0788	161.84	161.84
3.0788	166.69	166.69
3.0788	168.08	168.08
3.0788	172.14	172.14
3.0788	176.34	176.34
3.0788	181.11	181.11
3.0788	183.45	183.45
3.0788	187.84	187.84
3.0788	190.40	190.40
3.0788	195.74	195.74
3.0788	197.08	197.08
3.0788	199.88	199.88
3.0788	202.03	202.03
3.0788	202.41	202.41
3.0788	206.33	206.33
3.0788	207.05	207.05
3.0788	209.11	209.11
3.0788	211.65	211.65
3.0788	212.31	212.31
3.0788	214.09	214.09
3.0788	217.93	217.93
3.0788	218.66	218.66
3.0788	219.97	219.97
3.0788	224.71	224.71
3.0788	225.85	225.85
3.0788	231.10	231.10
3.0788	231.11	231.11
3.0788	233.60	233.60
3.0788	237.05	237.05
3.0788	238.79	238.79
3.0788	239.19	239.19
3.0788	244.25	244.25
3.0788	245.82	245.82
3.0788	245.85	245.85
3.1102	92.979	92.979
3.1102	94.912	94.912
3.1102	102.65	102.65
3.1102	104.60	104.60
3.1102	110.70	110.70
3.1102	112.52	112.52
3.1102	121.43	121.43
3.1102	123.15	123.15
3.1102	132.85	132.85
3.1102	134.67	134.67
3.1102	142.42	142.42
3.1102	144.48	144.48
3.1102	151.66	151.66
3.1102	154.00	154.00
3.1102	154.89	154.89
3.1102	157.29	157.29
3.1102	163.06	163.06
3.1102	165.49	165.49
3.1102	169.08	169.08
3.1102	171.11	171.11
3.1102	177.54	177.54
3.1102	179.92	179.92
3.1102	184.56	184.56
3.1102	186.75	186.75
3.1102	191.75	191.75
3.1102	194.42	194.42
3.1102	198.44	198.44
3.1102	201.10	201.10
3.1102	201.71	201.71
3.1102	203.78	203.78
3.1102	205.30	205.30
3.1102	207.32	207.32
3.1102	207.77	207.77
3.1102	210.76	210.76
3.1102	213.24	213.24
3.1102	215.55	215.55
3.1102	216.39	216.39
3.1102	218.48	218.48
3.1102	220.13	220.13
3.1102	223.16	223.16
3.1102	227.18	227.18
3.1102	229.81	229.81
3.1102	232.58	232.58
3.1102	235.01	235.01
3.1102	235.56	235.56
3.1102	237.80	237.80
3.1102	240.12	240.12
3.1102	242.85	242.85
3.1102	247.83	247.83
3.1102	248.40	248.40
3.1416	93.945	93.945
3.1416	93.945	93.945
3.1416	103.63	103.63
3.1416	103.63	103.63
3.1416	111.61	111.61
3.1416	111.61	111.61
3.1416	122.29	122.29
3.1416	122.29	122.29
3.1416	133.76	133.76
3.1416	133.76	133.76
3.1416	143.45	143.45
3.1416	143.45	143.45
3.1416	152.85	152.85
3.1416	152.85	152.85
3.1416	156.07	156.07
3.1416	156.07	156.07
3.1416	164.28	164.28
3.1416	164.28	164.28
3.1416	170.09	170.09
3.1416	170.09	170.09
3.1416	178.73	178.73
3.1416	178.73	178.73
3.1416	185.66	185.66
3.1416	185.66	185.66
3.1416	193.09	193.09
3.1416	193.09	193.09
3.1416	199.78	199.78
3.1416	199.78	199.78
3.1416	203.52	203.52
3.1416	203.52	203.52
3.1416	205.54	205.54
3.1416	205.54	205.54
3.1416	209.25	209.25
3.1416	209.25	209.25
3.1416	214.82	214.82
3.1416	214.82	214.82
3.1416	217.01	217.01
3.1416	217.01	217.01
3.1416	221.63	221.63
3.1416	221.63	221.63
3.1416	228.50	228.50
3.1416	228.50	228.50
3.1416	234.07	234.07
3.1416	234.07	234.07
3.1416	236.41	236.41
3.1416	236.41	236.41
3.1416	241.47	241.47
3.1416	241.47	241.47
3.1416	249.66	249.66
3.1416	249.66	249.66