kx (1/m)	Eigenfrequency (Hz)	real(freq) (Hz)
0.0000	0.068649	0.068649
0.0000	0.13730	0.13730
0.0000	0.38188	0.38188
0.0000	0.76377	0.76377
0.0000	1.0757	1.0757
0.0000	2.0520	2.0520
0.0000	2.1513	2.1513
0.0000	3.3118	3.3118
0.0000	4.1041	4.1041
0.0000	4.8723	4.8723
0.0000	6.5145	6.5145
0.0000	6.6236	6.6236
0.0000	8.2455	8.2455
0.0000	9.7445	9.7445
0.0000	10.283	10.283
0.0000	12.815	12.815
0.0000	13.029	13.029
0.0000	15.664	15.664
0.0000	16.491	16.491
0.0000	18.567	18.567
0.0000	20.565	20.565
0.0000	21.398	21.398
0.0000	24.412	24.412
0.0000	25.630	25.630
0.0000	28.355	28.355
0.031416	2.2079	2.2079
0.031416	2.5114	2.5114
0.031416	2.7288	2.7288
0.031416	3.4439	3.4439
0.031416	3.9656	3.9656
0.031416	4.7360	4.7360
0.031416	5.0133	5.0133
0.031416	5.1543	5.1543
0.031416	5.7120	5.7120
0.031416	6.1564	6.1564
0.031416	7.0486	7.0486
0.031416	8.0295	8.0295
0.031416	8.7978	8.7978
0.031416	10.469	10.469
0.031416	10.917	10.917
0.031416	12.985	12.985
0.031416	13.771	13.771
0.031416	15.790	15.790
0.031416	17.088	17.088
0.031416	18.728	18.728
0.031416	21.062	21.062
0.031416	21.568	21.568
0.031416	24.546	24.546
0.031416	26.018	26.018
0.031416	28.449	28.449
0.031416	31.619	31.619
0.031416	31.949	31.949
0.031416	35.256	35.256
0.031416	37.399	37.399
0.031416	39.581	39.581
0.031416	42.997	42.997
0.031416	43.741	43.741
0.031416	48.392	48.392
0.031416	49.021	49.021
0.031416	52.276	52.276
0.031416	56.820	56.820
0.031416	57.004	57.004
0.031416	61.704	61.704
0.031416	63.836	63.836
0.031416	67.246	67.246
0.031416	70.463	70.463
0.031416	71.961	71.961
0.031416	77.011	77.011
0.031416	79.124	79.124
0.031416	82.032	82.032
0.031416	87.422	87.422
0.031416	87.558	87.558
0.031416	93.619	93.619
0.031416	96.790	96.790
0.031416	99.141	99.141
0.062832	4.1882	4.1882
0.062832	5.0049	5.0049
0.062832	5.0804	5.0804
0.062832	5.4384	5.4384
0.062832	6.1282	6.1282
0.062832	6.2935	6.2935
0.062832	7.4849	7.4849
0.062832	9.0522	9.0522
0.062832	10.005	10.005
0.062832	10.070	10.070
0.062832	10.264	10.264
0.062832	10.611	10.611
0.062832	11.225	11.225
0.062832	12.000	12.000
0.062832	13.253	13.253
0.062832	13.848	13.848
0.062832	15.706	15.706
0.062832	16.344	16.344
0.062832	18.580	18.580
0.062832	19.356	19.356
0.062832	21.894	21.894
0.062832	22.634	22.634
0.062832	24.965	24.965
0.062832	27.156	27.156
0.062832	28.730	28.730
0.062832	32.166	32.166
0.062832	32.545	32.545
0.062832	35.526	35.526
0.062832	38.167	38.167
0.062832	39.791	39.791
0.062832	43.589	43.589
0.062832	43.929	43.929
0.062832	48.536	48.536
0.062832	49.575	49.575
0.062832	52.482	52.482
0.062832	57.028	57.028
0.062832	57.385	57.385
0.062832	61.814	61.814
0.062832	64.216	64.216
0.062832	67.344	67.344
0.062832	70.829	70.829
0.062832	72.104	72.104
0.062832	77.118	77.118
0.062832	79.426	79.426
0.062832	82.137	82.137
0.062832	87.556	87.556
0.062832	87.760	87.760
0.062832	93.690	93.690
0.062832	97.018	97.018
0.062832	99.222	99.222
0.094248	5.9690	5.9690
0.094248	7.5031	7.5031
0.094248	7.5468	7.5468
0.094248	7.7524	7.7524
0.094248	7.8486	7.8486
0.094248	8.2136	8.2136
0.094248	9.0984	9.0984
0.094248	10.453	10.453
0.094248	12.150	12.150
0.094248	14.032	14.032
0.094248	14.872	14.872
0.094248	15.004	15.004
0.094248	15.084	15.084
0.094248	15.387	15.387
0.094248	15.923	15.923
0.094248	16.606	16.606
0.094248	17.586	17.586
0.094248	18.696	18.696
0.094248	19.929	19.929
0.094248	21.319	21.319
0.094248	22.800	22.800
0.094248	24.680	24.680
0.094248	25.796	25.796
0.094248	28.939	28.939
0.094248	29.237	29.237
0.094248	32.613	32.613
0.094248	33.961	33.961
0.094248	35.996	35.996
0.094248	39.370	39.370
0.094248	40.162	40.162
0.094248	44.247	44.247
0.094248	44.561	44.561
0.094248	48.815	48.815
0.094248	50.462	50.462
0.094248	52.821	52.821
0.094248	57.289	57.289
0.094248	58.101	58.101
0.094248	62.010	62.010
0.094248	64.840	64.840
0.094248	67.508	67.508
0.094248	71.433	71.433
0.094248	72.347	72.347
0.094248	77.298	77.298
0.094248	79.925	79.925
0.094248	82.313	82.313
0.094248	87.705	87.705
0.094248	88.169	88.169
0.094248	93.807	93.807
0.094248	97.396	97.396
0.094248	99.358	99.358
0.12566	7.5390	7.5390
0.12566	9.1763	9.1763
0.12566	10.002	10.002
0.12566	10.032	10.032
0.12566	10.170	10.170
0.12566	10.466	10.466
0.12566	11.032	11.032
0.12566	12.075	12.075
0.12566	13.658	13.658
0.12566	15.454	15.454
0.12566	17.556	17.556
0.12566	18.254	18.254
0.12566	19.893	19.893
0.12566	20.003	20.003
0.12566	20.054	20.054
0.12566	20.272	20.272
0.12566	20.844	20.844
0.12566	21.646	21.646
0.12566	22.556	22.556
0.12566	23.560	23.560
0.12566	24.918	24.918
0.12566	26.408	26.408
0.12566	27.860	27.860
0.12566	29.916	29.916
0.12566	31.363	31.363
0.12566	33.243	33.243
0.12566	35.869	35.869
0.12566	36.671	36.671
0.12566	40.585	40.585
0.12566	41.064	41.064
0.12566	44.715	44.715
0.12566	45.877	45.877
0.12566	49.240	49.240
0.12566	51.678	51.678
0.12566	53.295	53.295
0.12566	57.641	57.641
0.12566	59.104	59.104
0.12566	62.300	62.300
0.12566	65.700	65.700
0.12566	67.738	67.738
0.12566	72.229	72.229
0.12566	72.730	72.730
0.12566	77.551	77.551
0.12566	80.615	80.615
0.12566	82.560	82.560
0.12566	87.901	87.901
0.12566	88.759	88.759
0.12566	93.971	93.971
0.12566	97.924	97.924
0.12566	99.548	99.548
0.15708	8.8490	8.8490
0.15708	10.423	10.423
0.15708	12.502	12.502
0.15708	12.520	12.520
0.15708	12.597	12.597
0.15708	12.781	12.781
0.15708	13.145	13.145
0.15708	13.961	13.961
0.15708	15.378	15.378
0.15708	17.015	17.015
0.15708	18.847	18.847
0.15708	20.826	20.826
0.15708	21.355	21.355
0.15708	23.936	23.936
0.15708	25.002	25.002
0.15708	25.036	25.036
0.15708	25.181	25.181
0.15708	25.540	25.540
0.15708	26.121	26.121
0.15708	26.647	26.647
0.15708	27.702	27.702
0.15708	28.773	28.773
0.15708	30.361	30.361
0.15708	31.490	31.490
0.15708	33.903	33.903
0.15708	34.376	34.376
0.15708	37.548	37.548
0.15708	38.193	38.193
0.15708	41.346	41.346
0.15708	42.899	42.899
0.15708	45.385	45.385
0.15708	47.477	47.477
0.15708	49.856	49.856
0.15708	53.184	53.184
0.15708	53.932	53.932
0.15708	58.093	58.093
0.15708	60.373	60.373
0.15708	62.693	62.693
0.15708	66.791	66.791
0.15708	68.036	68.036
0.15708	72.919	72.919
0.15708	73.546	73.546
0.15708	77.879	77.879
0.15708	81.491	81.491
0.15708	82.881	82.881
0.15708	88.152	88.152
0.15708	89.521	89.521
0.15708	94.183	94.183
0.15708	98.599	98.599
0.15708	99.791	99.791
0.18850	9.8733	9.8733
0.18850	11.733	11.733
0.18850	14.820	14.820
0.18850	15.002	15.002
0.18850	15.028	15.028
0.18850	15.152	15.152
0.18850	15.422	15.422
0.18850	16.061	16.061
0.18850	17.274	17.274
0.18850	18.741	18.741
0.18850	20.293	20.293
0.18850	22.465	22.465
0.18850	23.319	23.319
0.18850	25.365	25.365
0.18850	27.907	27.907
0.18850	30.002	30.002
0.18850	30.028	30.028
0.18850	30.111	30.111
0.18850	30.332	30.332
0.18850	30.502	30.502
0.18850	31.130	31.130
0.18850	31.913	31.913
0.18850	33.078	33.078
0.18850	34.088	34.088
0.18850	35.769	35.769
0.18850	37.073	37.073
0.18850	38.913	38.913
0.18850	40.658	40.658
0.18850	42.448	42.448
0.18850	44.781	44.781
0.18850	46.486	46.486
0.18850	49.142	49.142
0.18850	50.868	50.868
0.18850	54.415	54.415
0.18850	55.280	55.280
0.18850	58.654	58.654
0.18850	61.884	61.884
0.18850	63.200	63.200
0.18850	68.099	68.099
0.18850	68.412	68.412
0.18850	73.452	73.452
0.18850	74.836	74.836
0.18850	78.283	78.283
0.18850	82.541	82.541
0.18850	83.281	83.281
0.18850	88.465	88.465
0.18850	90.455	90.455
0.18850	94.441	94.441
0.18850	99.418	99.418
0.18850	100.09	100.09
0.21991	10.690	10.690
0.21991	13.118	13.118
0.21991	16.769	16.769
0.21991	17.502	17.502
0.21991	17.521	17.521
0.21991	17.613	17.613
0.21991	17.820	17.820
0.21991	18.309	18.309
0.21991	19.300	19.300
0.21991	20.588	20.588
0.21991	21.928	21.928
0.21991	23.937	23.937
0.21991	25.376	25.376
0.21991	26.798	26.798
0.21991	29.243	29.243
0.21991	31.823	31.823
0.21991	34.684	34.684
0.21991	35.002	35.002
0.21991	35.026	35.026
0.21991	35.067	35.067
0.21991	35.320	35.320
0.21991	35.606	35.606
0.21991	36.496	36.496
0.21991	37.136	37.136
0.21991	38.652	38.652
0.21991	39.514	39.514
0.21991	41.474	41.474
0.21991	42.691	42.691
0.21991	44.565	44.565
0.21991	46.240	46.240
0.21991	48.460	48.460
0.21991	50.462	50.462
0.21991	52.685	52.685
0.21991	55.260	55.260
0.21991	57.428	57.428
0.21991	59.335	59.335
0.21991	63.548	63.548
0.21991	63.895	63.895
0.21991	68.860	68.860
0.21991	69.631	69.631
0.21991	74.035	74.035
0.21991	76.386	76.386
0.21991	78.768	78.768
0.21991	83.625	83.625
0.21991	83.896	83.896
0.21991	88.842	88.842
0.21991	91.558	91.558
0.21991	94.749	94.749
0.21991	100.36	100.36
0.21991	100.46	100.46
0.25133	11.397	11.397
0.25133	14.534	14.534
0.25133	18.536	18.536
0.25133	20.002	20.002
0.25133	20.018	20.018
0.25133	20.092	20.092
0.25133	20.259	20.259
0.25133	20.638	20.638
0.25133	21.419	21.419
0.25133	22.534	22.534
0.25133	23.747	23.747
0.25133	25.552	25.552
0.25133	27.253	27.253
0.25133	28.308	28.308
0.25133	30.575	30.575
0.25133	33.119	33.119
0.25133	36.133	36.133
0.25133	38.706	38.706
0.25133	39.604	39.604
0.25133	40.003	40.003
0.25133	40.029	40.029
0.25133	40.128	40.128
0.25133	40.458	40.458
0.25133	40.983	40.983
0.25133	42.021	42.021
0.25133	42.588	42.588
0.25133	44.276	44.276
0.25133	45.218	45.218
0.25133	47.250	47.250
0.25133	47.933	47.933
0.25133	50.961	50.961
0.25133	51.715	51.715
0.25133	55.065	55.065
0.25133	56.253	56.253
0.25133	59.872	59.872
0.25133	60.171	60.171
0.25133	64.526	64.526
0.25133	65.605	65.605
0.25133	69.430	69.430
0.25133	71.328	71.328
0.25133	74.723	74.723
0.25133	78.122	78.122
0.25133	79.363	79.363
0.25133	84.231	84.231
0.25133	85.231	85.231
0.25133	89.288	89.288
0.25133	92.828	92.828
0.25133	95.107	95.107
0.25133	100.83	100.83
0.25133	101.49	101.49
0.28274	12.053	12.053
0.28274	15.953	15.953
0.28274	20.165	20.165
0.28274	22.502	22.502
0.28274	22.516	22.516
0.28274	22.577	22.577
0.28274	22.713	22.713
0.28274	23.002	23.002
0.28274	23.601	23.601
0.28274	24.574	24.574
0.28274	25.714	25.714
0.28274	27.290	27.290
0.28274	28.953	28.953
0.28274	29.897	29.897
0.28274	31.974	31.974
0.28274	34.531	34.531
0.28274	37.387	37.387
0.28274	40.404	40.404
0.28274	42.193	42.193
0.28274	44.101	44.101
0.28274	45.003	45.003
0.28274	45.025	45.025
0.28274	45.112	45.112
0.28274	45.338	45.338
0.28274	45.871	45.871
0.28274	46.456	46.456
0.28274	47.469	47.469
0.28274	48.190	48.190
0.28274	49.973	49.973
0.28274	50.709	50.709
0.28274	53.050	53.050
0.28274	54.018	54.018
0.28274	57.029	57.029
0.28274	58.131	58.131
0.28274	61.253	61.253
0.28274	62.483	62.483
0.28274	65.492	65.492
0.28274	67.649	67.649
0.28274	70.185	70.185
0.28274	73.100	73.100
0.28274	75.609	75.609
0.28274	79.663	79.663
0.28274	80.428	80.428
0.28274	84.839	84.839
0.28274	86.807	86.807
0.28274	89.810	89.810
0.28274	94.260	94.260
0.28274	95.521	95.521
0.28274	101.29	101.29
0.28274	102.71	102.71
0.31416	12.692	12.692
0.31416	17.362	17.362
0.31416	21.692	21.692
0.31416	25.002	25.002
0.31416	25.014	25.014
0.31416	25.060	25.060
0.31416	25.162	25.162
0.31416	25.367	25.367
0.31416	25.828	25.828
0.31416	26.699	26.699
0.31416	27.782	27.782
0.31416	29.103	29.103
0.31416	30.530	30.530
0.31416	31.537	31.537
0.31416	33.484	33.484
0.31416	36.068	36.068
0.31416	38.674	38.674
0.31416	41.630	41.630
0.31416	44.457	44.457
0.31416	45.690	45.690
0.31416	48.664	48.664
0.31416	50.003	50.003
0.31416	50.025	50.025
0.31416	50.091	50.091
0.31416	50.297	50.297
0.31416	50.647	50.647
0.31416	51.420	51.420
0.31416	51.661	51.661
0.31416	53.084	53.084
0.31416	53.799	53.799
0.31416	55.713	55.713
0.31416	56.619	56.619
0.31416	58.932	58.932
0.31416	60.537	60.537
0.31416	62.976	62.976
0.31416	64.904	64.904
0.31416	66.950	66.950
0.31416	69.565	69.565
0.31416	71.398	71.398
0.31416	74.681	74.681
0.31416	76.940	76.940
0.31416	80.523	80.523
0.31416	82.432	82.432
0.31416	85.515	85.515
0.31416	88.561	88.561
0.31416	90.412	90.412
0.31416	95.798	95.798
0.31416	96.044	96.044
0.31416	101.80	101.80
0.31416	104.05	104.05
0.34558	13.331	13.331
0.34558	18.750	18.750
0.34558	23.156	23.156
0.34558	27.443	27.443
0.34558	27.502	27.502
0.34558	27.521	27.521
0.34558	27.591	27.591
0.34558	27.744	27.744
0.34558	28.120	28.120
0.34558	28.895	28.895
0.34558	29.900	29.900
0.34558	30.932	30.932
0.34558	32.112	32.112
0.34558	33.199	33.199
0.34558	35.125	35.125
0.34558	37.703	37.703
0.34558	40.012	40.012
0.34558	42.852	42.852
0.34558	46.067	46.067
0.34558	47.501	47.501
0.34558	50.143	50.143
0.34558	53.393	53.393
0.34558	55.002	55.002
0.34558	55.019	55.019
0.34558	55.068	55.068
0.34558	55.152	55.152
0.34558	55.465	55.465
0.34558	55.814	55.814
0.34558	56.871	56.871
0.34558	57.124	57.124
0.34558	58.647	58.647
0.34558	59.601	59.601
0.34558	61.647	61.647
0.34558	62.675	62.675
0.34558	65.610	65.610
0.34558	66.727	66.727
0.34558	69.361	69.361
0.34558	71.006	71.006
0.34558	73.473	73.473
0.34558	75.894	75.894
0.34558	78.849	78.849
0.34558	81.406	81.406
0.34558	84.662	84.662
0.34558	86.293	86.293
0.34558	90.489	90.489
0.34558	91.106	91.106
0.34558	96.506	96.506
0.34558	97.607	97.607
0.34558	102.39	102.39
0.34558	105.44	105.44
0.37699	13.980	13.980
0.37699	20.112	20.112
0.37699	24.581	24.581
0.37699	29.519	29.519
0.37699	30.002	30.002
0.37699	30.017	30.017
0.37699	30.069	30.069
0.37699	30.191	30.191
0.37699	30.489	30.489
0.37699	31.137	31.137
0.37699	32.001	32.001
0.37699	32.779	32.779
0.37699	33.822	33.822
0.37699	34.895	34.895
0.37699	36.885	36.885
0.37699	39.398	39.398
0.37699	41.406	41.406
0.37699	44.144	44.144
0.37699	47.347	47.347
0.37699	49.330	49.330
0.37699	51.695	51.695
0.37699	54.801	54.801
0.37699	57.820	57.820
0.37699	59.481	59.481
0.37699	60.003	60.003
0.37699	60.030	60.030
0.37699	60.095	60.095
0.37699	60.275	60.275
0.37699	60.735	60.735
0.37699	61.272	61.272
0.37699	62.411	62.411
0.37699	62.719	62.719
0.37699	64.713	64.713
0.37699	65.445	65.445
0.37699	68.107	68.107
0.37699	69.072	69.072
0.37699	72.017	72.017
0.37699	72.643	72.643
0.37699	76.030	76.030
0.37699	77.082	77.082
0.37699	80.880	80.880
0.37699	82.649	82.649
0.37699	86.676	86.676
0.37699	87.483	87.483
0.37699	91.884	91.884
0.37699	92.613	92.613
0.37699	97.136	97.136
0.37699	99.440	99.440
0.37699	103.07	103.07
0.37699	106.77	106.77
0.40841	14.646	14.646
0.40841	21.442	21.442
0.40841	25.980	25.980
0.40841	31.304	31.304
0.40841	32.502	32.502
0.40841	32.517	32.517
0.40841	32.561	32.561
0.40841	32.661	32.661
0.40841	32.894	32.894
0.40841	33.373	33.373
0.40841	34.033	34.033
0.40841	34.767	34.767
0.40841	35.657	35.657
0.40841	36.674	36.674
0.40841	38.735	38.735
0.40841	41.107	41.107
0.40841	42.876	42.876
0.40841	45.525	45.525
0.40841	48.538	48.538
0.40841	51.022	51.022
0.40841	53.363	53.363
0.40841	56.158	56.158
0.40841	59.130	59.130
0.40841	62.031	62.031
0.40841	63.962	63.962
0.40841	65.003	65.003
0.40841	65.031	65.031
0.40841	65.082	65.082
0.40841	65.256	65.256
0.40841	65.590	65.590
0.40841	66.310	66.310
0.40841	66.791	66.791
0.40841	67.843	67.843
0.40841	68.842	68.842
0.40841	70.822	70.822
0.40841	71.838	71.838
0.40841	74.156	74.156
0.40841	75.448	75.448
0.40841	77.965	77.965
0.40841	79.388	79.388
0.40841	82.432	82.432
0.40841	84.658	84.658
0.40841	87.888	87.888
0.40841	89.657	89.657
0.40841	92.828	92.828
0.40841	94.871	94.871
0.40841	97.900	97.900
0.40841	101.29	101.29
0.40841	103.95	103.95
0.40841	107.85	107.85
0.43982	15.331	15.331
0.43982	22.734	22.734
0.43982	27.359	27.359
0.43982	32.837	32.837
0.43982	35.002	35.002
0.43982	35.015	35.015
0.43982	35.049	35.049
0.43982	35.118	35.118
0.43982	35.256	35.256
0.43982	35.554	35.554
0.43982	36.134	36.134
0.43982	36.889	36.889
0.43982	37.570	37.570
0.43982	38.597	38.597
0.43982	40.646	40.646
0.43982	42.788	42.788
0.43982	44.459	44.459
0.43982	46.990	46.990
0.43982	49.716	49.716
0.43982	52.614	52.614
0.43982	55.081	55.081
0.43982	57.543	57.543
0.43982	60.258	60.258
0.43982	63.901	63.901
0.43982	66.106	66.106
0.43982	68.497	68.497
0.43982	70.003	70.003
0.43982	70.033	70.033
0.43982	70.080	70.080
0.43982	70.224	70.224
0.43982	70.564	70.564
0.43982	71.074	71.074
0.43982	72.040	72.040
0.43982	72.378	72.378
0.43982	73.742	73.742
0.43982	74.966	74.966
0.43982	76.787	76.787
0.43982	78.149	78.149
0.43982	80.122	80.122
0.43982	82.267	82.267
0.43982	84.017	84.017
0.43982	86.912	86.912
0.43982	89.294	89.294
0.43982	91.875	91.875
0.43982	94.087	94.087
0.43982	97.103	97.103
0.43982	99.002	99.002
0.43982	102.90	102.90
0.43982	105.24	105.24
0.43982	108.70	108.70
0.47124	16.036	16.036
0.47124	23.986	23.986
0.47124	28.717	28.717
0.47124	34.202	34.202
0.47124	37.142	37.142
0.47124	37.502	37.502
0.47124	37.520	37.520
0.47124	37.561	37.561
0.47124	37.654	37.654
0.47124	37.886	37.886
0.47124	38.377	38.377
0.47124	39.013	39.013
0.47124	39.626	39.626
0.47124	40.660	40.660
0.47124	42.585	42.585
0.47124	44.432	44.432
0.47124	46.178	46.178
0.47124	48.513	48.513
0.47124	50.929	50.929
0.47124	54.160	54.160
0.47124	56.780	56.780
0.47124	58.965	58.965
0.47124	61.404	61.404
0.47124	65.261	65.261
0.47124	68.531	68.531
0.47124	69.731	69.731
0.47124	73.819	73.819
0.47124	75.003	75.003
0.47124	75.034	75.034
0.47124	75.078	75.078
0.47124	75.205	75.205
0.47124	75.480	75.480
0.47124	75.977	75.977
0.47124	76.629	76.629
0.47124	77.592	77.592
0.47124	77.989	77.989
0.47124	79.506	79.506
0.47124	81.206	81.206
0.47124	82.891	82.891
0.47124	84.727	84.727
0.47124	86.625	86.625
0.47124	88.791	88.791
0.47124	91.403	91.403
0.47124	93.643	93.643
0.47124	96.025	96.025
0.47124	98.755	98.755
0.47124	101.01	101.01
0.47124	104.11	104.11
0.47124	107.12	107.12
0.47124	109.49	109.49
0.50265	16.762	16.762
0.50265	25.193	25.193
0.50265	30.052	30.052
0.50265	35.481	35.481
0.50265	38.825	38.825
0.50265	40.002	40.002
0.50265	40.019	40.019
0.50265	40.056	40.056
0.50265	40.130	40.130
0.50265	40.305	40.305
0.50265	40.644	40.644
0.50265	41.166	41.166
0.50265	41.848	41.848
0.50265	42.814	42.814
0.50265	44.511	44.511
0.50265	46.090	46.090
0.50265	48.010	48.010
0.50265	50.057	50.057
0.50265	52.228	52.228
0.50265	55.686	55.686
0.50265	58.422	58.422
0.50265	60.424	60.424
0.50265	62.631	62.631
0.50265	66.454	66.454
0.50265	70.591	70.591
0.50265	71.311	71.311
0.50265	75.096	75.096
0.50265	79.169	79.169
0.50265	79.865	79.865
0.50265	80.004	80.004
0.50265	80.045	80.045
0.50265	80.092	80.092
0.50265	80.255	80.255
0.50265	80.596	80.596
0.50265	81.188	81.188
0.50265	82.116	82.116
0.50265	83.192	83.192
0.50265	84.077	84.077
0.50265	85.891	85.891
0.50265	87.600	87.600
0.50265	89.520	89.520
0.50265	90.911	90.911
0.50265	93.888	93.888
0.50265	95.185	95.185
0.50265	98.540	98.540
0.50265	100.04	100.04
0.50265	103.74	103.74
0.50265	105.15	105.15
0.50265	109.35	109.35
0.50265	110.34	110.34
0.53407	17.507	17.507
0.53407	26.355	26.355
0.53407	31.363	31.363
0.53407	36.730	36.730
0.53407	40.350	40.350
0.53407	42.501	42.501
0.53407	42.510	42.510
0.53407	42.538	42.538
0.53407	42.583	42.583
0.53407	42.684	42.684
0.53407	42.931	42.931
0.53407	43.444	43.444
0.53407	44.155	44.155
0.53407	45.014	45.014
0.53407	46.384	46.384
0.53407	47.846	47.846
0.53407	49.900	49.900
0.53407	51.596	51.596
0.53407	53.662	53.662
0.53407	57.193	57.193
0.53407	59.998	59.998
0.53407	61.917	61.917
0.53407	63.959	63.959
0.53407	67.600	67.600
0.53407	71.826	71.826
0.53407	73.670	73.670
0.53407	76.279	76.279
0.53407	80.403	80.403
0.53407	83.014	83.014
0.53407	84.825	84.825
0.53407	85.003	85.003
0.53407	85.040	85.040
0.53407	85.091	85.091
0.53407	85.206	85.206
0.53407	85.507	85.507
0.53407	86.013	86.013
0.53407	86.885	86.885
0.53407	88.048	88.048
0.53407	89.301	89.301
0.53407	90.362	90.362
0.53407	92.703	92.703
0.53407	93.575	93.575
0.53407	96.244	96.244
0.53407	97.229	97.229
0.53407	100.98	100.98
0.53407	101.79	101.79
0.53407	106.24	106.24
0.53407	106.72	106.72
0.53407	111.10	111.10
0.53407	111.95	111.95
0.56549	18.270	18.270
0.56549	27.471	27.471
0.56549	32.646	32.646
0.56549	37.974	37.974
0.56549	41.784	41.784
0.56549	44.691	44.691
0.56549	45.002	45.002
0.56549	45.023	45.023
0.56549	45.063	45.063
0.56549	45.137	45.137
0.56549	45.344	45.344
0.56549	45.810	45.810
0.56549	46.490	46.490
0.56549	47.215	47.215
0.56549	48.225	48.225
0.56549	49.740	49.740
0.56549	51.769	51.769
0.56549	53.163	53.163
0.56549	55.252	55.252
0.56549	58.675	58.675
0.56549	61.527	61.527
0.56549	63.439	63.439
0.56549	65.386	65.386
0.56549	68.743	68.743
0.56549	72.993	72.993
0.56549	76.002	76.002
0.56549	77.464	77.464
0.56549	81.599	81.599
0.56549	85.580	85.580
0.56549	86.117	86.117
0.56549	90.003	90.003
0.56549	90.039	90.039
0.56549	90.096	90.096
0.56549	90.184	90.184
0.56549	90.434	90.434
0.56549	90.476	90.476
0.56549	90.998	90.998
0.56549	91.670	91.670
0.56549	92.976	92.976
0.56549	93.941	93.941
0.56549	95.784	95.784
0.56549	96.420	96.420
0.56549	98.979	98.979
0.56549	99.653	99.653
0.56549	103.04	103.04
0.56549	104.34	104.34
0.56549	107.71	107.71
0.56549	109.64	109.64
0.56549	112.28	112.28
0.56549	114.45	114.45
0.59690	19.050	19.050
0.59690	28.544	28.544
0.59690	33.899	33.899
0.59690	39.226	39.226
0.59690	43.171	43.171
0.59690	46.671	46.671
0.59690	47.502	47.502
0.59690	47.522	47.522
0.59690	47.563	47.563
0.59690	47.624	47.624
0.59690	47.803	47.803
0.59690	48.207	48.207
0.59690	48.809	48.809
0.59690	49.363	49.363
0.59690	50.158	50.158
0.59690	51.731	51.731
0.59690	53.528	53.528
0.59690	54.869	54.869
0.59690	56.972	56.972
0.59690	60.125	60.125
0.59690	63.046	63.046
0.59690	64.976	64.976
0.59690	66.892	66.892
0.59690	69.912	69.912
0.59690	74.183	74.183
0.59690	77.978	77.978
0.59690	78.892	78.892
0.59690	82.843	82.843
0.59690	86.900	86.900
0.59690	88.369	88.369
0.59690	91.850	91.850
0.59690	95.003	95.003
0.59690	95.037	95.037
0.59690	95.104	95.104
0.59690	95.179	95.179
0.59690	95.383	95.383
0.59690	95.789	95.789
0.59690	95.883	95.883
0.59690	96.727	96.727
0.59690	97.433	97.433
0.59690	99.076	99.076
0.59690	99.703	99.703
0.59690	101.80	101.80
0.59690	102.61	102.61
0.59690	105.50	105.50
0.59690	106.81	106.81
0.59690	109.84	109.84
0.59690	112.07	112.07
0.59690	114.12	114.12
0.59690	116.89	116.89
0.62832	19.846	19.846
0.62832	29.576	29.576
0.62832	35.121	35.121
0.62832	40.488	40.488
0.62832	44.535	44.535
0.62832	48.526	48.526
0.62832	50.002	50.002
0.62832	50.021	50.021
0.62832	50.065	50.065
0.62832	50.115	50.115
0.62832	50.267	50.267
0.62832	50.582	50.582
0.62832	51.023	51.023
0.62832	51.526	51.526
0.62832	52.282	52.282
0.62832	53.738	53.738
0.62832	55.193	55.193
0.62832	56.770	56.770
0.62832	58.777	58.777
0.62832	61.551	61.551
0.62832	64.585	64.585
0.62832	66.520	66.520
0.62832	68.447	68.447
0.62832	71.135	71.135
0.62832	75.401	75.401
0.62832	79.309	79.309
0.62832	80.842	80.842
0.62832	84.148	84.148
0.62832	87.941	87.941
0.62832	90.677	90.677
0.62832	93.254	93.254
0.62832	97.130	97.130
0.62832	100.00	100.00
0.62832	100.03	100.03
0.62832	100.11	100.11
0.62832	100.14	100.14
0.62832	100.32	100.32
0.62832	100.50	100.50
0.62832	101.02	101.02
0.62832	101.48	101.48
0.62832	102.57	102.57
0.62832	103.01	103.01
0.62832	105.09	105.09
0.62832	105.95	105.95
0.62832	107.98	107.98
0.62832	109.72	109.72
0.62832	112.24	112.24
0.62832	114.17	114.17
0.62832	116.71	116.71
0.62832	118.83	118.83
0.65973	20.656	20.656
0.65973	30.572	30.572
0.65973	36.311	36.311
0.65973	41.757	41.757
0.65973	45.892	45.892
0.65973	50.256	50.256
0.65973	52.501	52.501
0.65973	52.513	52.513
0.65973	52.549	52.549
0.65973	52.589	52.589
0.65973	52.661	52.661
0.65973	52.853	52.853
0.65973	53.251	53.251
0.65973	53.832	53.832
0.65973	54.516	54.516
0.65973	55.667	55.667
0.65973	56.944	56.944
0.65973	58.793	58.793
0.65973	60.619	60.619
0.65973	62.987	62.987
0.65973	66.154	66.154
0.65973	68.064	68.064
0.65973	70.021	70.021
0.65973	72.444	72.444
0.65973	76.639	76.639
0.65973	80.453	80.453
0.65973	82.850	82.850
0.65973	85.522	85.522
0.65973	88.995	88.995
0.65973	92.584	92.584
0.65973	95.028	95.028
0.65973	98.199	98.199
0.65973	102.42	102.42
0.65973	104.53	104.53
0.65973	105.00	105.00
0.65973	105.04	105.04
0.65973	105.13	105.13
0.65973	105.19	105.19
0.65973	105.46	105.46
0.65973	105.82	105.82
0.65973	106.61	106.61
0.65973	107.17	107.17
0.65973	108.18	108.18
0.65973	109.42	109.42
0.65973	111.43	111.43
0.65973	112.55	112.55
0.65973	114.76	114.76
0.65973	116.67	116.67
0.65973	119.17	119.17
0.65973	120.90	120.90
0.69115	21.479	21.479
0.69115	31.534	31.534
0.69115	37.469	37.469
0.69115	43.031	43.031
0.69115	47.251	47.251
0.69115	51.875	51.875
0.69115	54.531	54.531
0.69115	55.002	55.002
0.69115	55.022	55.022
0.69115	55.076	55.076
0.69115	55.120	55.120
0.69115	55.278	55.278
0.69115	55.637	55.637
0.69115	56.187	56.187
0.69115	56.746	56.746
0.69115	57.535	57.535
0.69115	58.904	58.904
0.69115	60.859	60.859
0.69115	62.457	62.457
0.69115	64.489	64.489
0.69115	67.739	67.739
0.69115	69.615	69.615
0.69115	71.588	71.588
0.69115	73.867	73.867
0.69115	77.886	77.886
0.69115	81.595	81.595
0.69115	84.725	84.725
0.69115	86.975	86.975
0.69115	90.101	90.101
0.69115	94.052	94.052
0.69115	97.189	97.189
0.69115	99.260	99.260
0.69115	103.76	103.76
0.69115	106.98	106.98
0.69115	108.83	108.83
0.69115	110.00	110.00
0.69115	110.04	110.04
0.69115	110.14	110.14
0.69115	110.18	110.18
0.69115	110.42	110.42
0.69115	110.78	110.78
0.69115	111.44	111.44
0.69115	112.45	112.45
0.69115	113.37	113.37
0.69115	114.29	114.29
0.69115	115.99	115.99
0.69115	117.84	117.84
0.69115	119.10	119.10
0.69115	121.58	121.58
0.69115	123.47	123.47
0.72257	22.312	22.312
0.72257	32.469	32.469
0.72257	38.596	38.596
0.72257	44.302	44.302
0.72257	48.615	48.615
0.72257	53.409	53.409
0.72257	56.311	56.311
0.72257	57.502	57.502
0.72257	57.520	57.520
0.72257	57.577	57.577
0.72257	57.617	57.617
0.72257	57.748	57.748
0.72257	58.040	58.040
0.72257	58.467	58.467
0.72257	58.903	58.903
0.72257	59.580	59.580
0.72257	61.011	61.011
0.72257	62.905	62.905
0.72257	64.276	64.276
0.72257	66.122	66.122
0.72257	69.314	69.314
0.72257	71.187	71.187
0.72257	73.137	73.137
0.72257	75.412	75.412
0.72257	79.132	79.132
0.72257	82.778	82.778
0.72257	86.411	86.411
0.72257	88.519	88.519
0.72257	91.278	91.278
0.72257	95.310	95.310
0.72257	99.330	99.330
0.72257	100.53	100.53
0.72257	104.91	104.91
0.72257	109.31	109.31
0.72257	110.04	110.04
0.72257	114.68	114.68
0.72257	115.00	115.00
0.72257	115.04	115.04
0.72257	115.15	115.15
0.72257	115.19	115.19
0.72257	115.41	115.41
0.72257	115.73	115.73
0.72257	116.34	116.34
0.72257	117.27	117.27
0.72257	118.55	118.55
0.72257	119.43	119.43
0.72257	120.58	120.58
0.72257	122.11	122.11
0.72257	124.35	124.35
0.72257	125.84	125.84
0.75398	23.157	23.157
0.75398	33.380	33.380
0.75398	39.696	39.696
0.75398	45.566	45.566
0.75398	49.985	49.985
0.75398	54.883	54.883
0.75398	57.991	57.991
0.75398	60.001	60.001
0.75398	60.013	60.013
0.75398	60.052	60.052
0.75398	60.107	60.107
0.75398	60.154	60.154
0.75398	60.327	60.327
0.75398	60.680	60.680
0.75398	61.199	61.199
0.75398	61.844	61.844
0.75398	63.175	63.175
0.75398	64.858	64.858
0.75398	66.137	66.137
0.75398	67.910	67.910
0.75398	70.858	70.858
0.75398	72.798	72.798
0.75398	74.680	74.680
0.75398	77.064	77.064
0.75398	80.373	80.373
0.75398	84.023	84.023
0.75398	87.904	87.904
0.75398	90.145	90.145
0.75398	92.539	92.539
0.75398	96.497	96.497
0.75398	100.84	100.84
0.75398	102.47	102.47
0.75398	105.99	105.99
0.75398	111.02	111.02
0.75398	111.82	111.82
0.75398	115.79	115.79
0.75398	120.00	120.00
0.75398	120.03	120.03
0.75398	120.15	120.15
0.75398	120.20	120.20
0.75398	120.39	120.39
0.75398	120.57	120.57
0.75398	120.84	120.84
0.75398	121.17	121.17
0.75398	122.02	122.02
0.75398	122.84	122.84
0.75398	124.36	124.36
0.75398	125.36	125.36
0.75398	126.95	126.95
0.75398	128.76	128.76
0.78540	24.010	24.010
0.78540	34.271	34.271
0.78540	40.769	40.769
0.78540	46.817	46.817
0.78540	51.361	51.361
0.78540	56.315	56.315
0.78540	59.593	59.593
0.78540	61.980	61.980
0.78540	62.502	62.502
0.78540	62.521	62.521
0.78540	62.586	62.586
0.78540	62.630	62.630
0.78540	62.761	62.761
0.78540	63.085	63.085
0.78540	63.595	63.595
0.78540	64.184	64.184
0.78540	65.326	65.326
0.78540	66.709	66.709
0.78540	68.125	68.125
0.78540	69.815	69.815
0.78540	72.369	72.369
0.78540	74.454	74.454
0.78540	76.240	76.240
0.78540	78.788	78.788
0.78540	81.622	81.622
0.78540	85.333	85.333
0.78540	89.248	89.248
0.78540	91.812	91.812
0.78540	93.885	93.885
0.78540	97.665	97.665
0.78540	102.01	102.01
0.78540	104.72	104.72
0.78540	107.08	107.08
0.78540	112.15	112.15
0.78540	114.19	114.19
0.78540	116.86	116.86
0.78540	121.94	121.94
0.78540	124.67	124.67
0.78540	125.00	125.00
0.78540	125.04	125.04
0.78540	125.17	125.17
0.78540	125.22	125.22
0.78540	125.45	125.45
0.78540	125.73	125.73
0.78540	126.40	126.40
0.78540	126.79	126.79
0.78540	127.71	127.71
0.78540	128.74	128.74
0.78540	130.85	130.85
0.78540	131.53	131.53
0.81681	24.872	24.872
0.81681	35.146	35.146
0.81681	41.818	41.818
0.81681	48.049	48.049
0.81681	52.740	52.740
0.81681	57.718	57.718
0.81681	61.146	61.146
0.81681	63.721	63.721
0.81681	65.002	65.002
0.81681	65.019	65.019
0.81681	65.084	65.084
0.81681	65.137	65.137
0.81681	65.243	65.243
0.81681	65.535	65.535
0.81681	66.009	66.009
0.81681	66.529	66.529
0.81681	67.399	67.399
0.81681	68.596	68.596
0.81681	70.224	70.224
0.81681	71.778	71.778
0.81681	73.883	73.883
0.81681	76.139	76.139
0.81681	77.839	77.839
0.81681	80.537	80.537
0.81681	82.908	82.908
0.81681	86.699	86.699
0.81681	90.503	90.503
0.81681	93.475	93.475
0.81681	95.306	95.306
0.81681	98.838	98.838
0.81681	103.14	103.14
0.81681	106.82	106.82
0.81681	108.30	108.30
0.81681	113.25	113.25
0.81681	116.54	116.54
0.81681	118.03	118.03
0.81681	123.03	123.03
0.81681	126.81	126.81
0.81681	128.71	128.71
0.81681	130.00	130.00
0.81681	130.03	130.03
0.81681	130.16	130.16
0.81681	130.24	130.24
0.81681	130.42	130.42
0.81681	130.71	130.71
0.81681	131.24	131.24
0.81681	132.22	132.22
0.81681	132.67	132.67
0.81681	133.87	133.87
0.81681	135.21	135.21
0.84823	25.741	25.741
0.84823	36.008	36.008
0.84823	42.846	42.846
0.84823	49.260	49.260
0.84823	54.117	54.117
0.84823	59.103	59.103
0.84823	62.673	62.673
0.84823	65.383	65.383
0.84823	67.501	67.501
0.84823	67.518	67.518
0.84823	67.580	67.580
0.84823	67.647	67.647
0.84823	67.728	67.728
0.84823	67.984	67.984
0.84823	68.389	68.389
0.84823	68.813	68.813
0.84823	69.437	69.437
0.84823	70.652	70.652
0.84823	72.364	72.364
0.84823	73.742	73.742
0.84823	75.465	75.465
0.84823	77.825	77.825
0.84823	79.494	79.494
0.84823	82.256	82.256
0.84823	84.285	84.285
0.84823	88.102	88.102
0.84823	91.724	91.724
0.84823	95.100	95.100
0.84823	96.785	96.785
0.84823	100.04	100.04
0.84823	104.30	104.30
0.84823	108.45	108.45
0.84823	109.90	109.90
0.84823	114.35	114.35
0.84823	118.41	118.41
0.84823	119.75	119.75
0.84823	124.12	124.12
0.84823	128.17	128.17
0.84823	130.72	130.72
0.84823	134.05	134.05
0.84823	135.00	135.00
0.84823	135.03	135.03
0.84823	135.15	135.15
0.84823	135.27	135.27
0.84823	135.42	135.42
0.84823	135.67	135.67
0.84823	136.23	136.23
0.84823	137.01	137.01
0.84823	138.31	138.31
0.84823	138.64	138.64
0.87965	26.616	26.616
0.87965	36.861	36.861
0.87965	43.856	43.856
0.87965	50.446	50.446
0.87965	55.489	55.489
0.87965	60.477	60.477
0.87965	64.189	64.189
0.87965	66.966	66.966
0.87965	70.001	70.001
0.87965	70.016	70.016
0.87965	70.065	70.065
0.87965	70.151	70.151
0.87965	70.182	70.182
0.87965	70.350	70.350
0.87965	70.652	70.652
0.87965	71.084	71.084
0.87965	71.652	71.652
0.87965	72.838	72.838
0.87965	74.480	74.480
0.87965	75.679	75.679
0.87965	77.192	77.192
0.87965	79.490	79.490
0.87965	81.209	81.209
0.87965	83.891	83.891
0.87965	85.816	85.816
0.87965	89.518	89.518
0.87965	92.959	92.959
0.87965	96.666	96.666
0.87965	98.305	98.305
0.87965	101.28	101.28
0.87965	105.48	105.48
0.87965	109.67	109.67
0.87965	111.82	111.82
0.87965	115.47	115.47
0.87965	119.68	119.68
0.87965	122.09	122.09
0.87965	125.26	125.26
0.87965	129.30	129.30
0.87965	132.74	132.74
0.87965	135.25	135.25
0.87965	139.85	139.85
0.87965	140.00	140.00
0.87965	140.03	140.03
0.87965	140.15	140.15
0.87965	140.30	140.30
0.87965	140.41	140.41
0.87965	140.68	140.68
0.87965	141.14	141.14
0.87965	141.98	141.98
0.87965	142.89	142.89
0.91106	27.498	27.498
0.91106	37.705	37.705
0.91106	44.849	44.849
0.91106	51.605	51.605
0.91106	56.852	56.852
0.91106	61.844	61.844
0.91106	65.702	65.702
0.91106	68.479	68.479
0.91106	72.117	72.117
0.91106	72.501	72.501
0.91106	72.519	72.519
0.91106	72.588	72.588
0.91106	72.675	72.675
0.91106	72.752	72.752
0.91106	73.036	73.036
0.91106	73.477	73.477
0.91106	74.005	74.005
0.91106	75.070	75.070
0.91106	76.499	76.499
0.91106	77.644	77.644
0.91106	79.087	79.087
0.91106	81.132	81.132
0.91106	82.970	82.970
0.91106	85.438	85.438
0.91106	87.521	87.521
0.91106	90.923	90.923
0.91106	94.244	94.244
0.91106	98.158	98.158
0.91106	99.850	99.850
0.91106	102.59	102.59
0.91106	106.70	106.70
0.91106	110.79	110.79
0.91106	113.73	113.73
0.91106	116.62	116.62
0.91106	120.83	120.83
0.91106	124.40	124.40
0.91106	126.61	126.61
0.91106	130.39	130.39
0.91106	134.56	134.56
0.91106	136.59	136.59
0.91106	140.96	140.96
0.91106	145.00	145.00
0.91106	145.03	145.03
0.91106	145.13	145.13
0.91106	145.32	145.32
0.91106	145.36	145.36
0.91106	145.61	145.61
0.91106	145.80	145.80
0.91106	146.20	146.20
0.91106	146.56	146.56
0.94248	28.384	28.384
0.94248	38.545	38.545
0.94248	45.828	45.828
0.94248	52.737	52.737
0.94248	58.200	58.200
0.94248	63.209	63.209
0.94248	67.212	67.212
0.94248	69.943	69.943
0.94248	73.819	73.819
0.94248	75.001	75.001
0.94248	75.018	75.018
0.94248	75.082	75.082
0.94248	75.188	75.188
0.94248	75.237	75.237
0.94248	75.497	75.497
0.94248	75.911	75.911
0.94248	76.393	76.393
0.94248	77.277	77.277
0.94248	78.426	78.426
0.94248	79.722	79.722
0.94248	81.092	81.092
0.94248	82.771	82.771
0.94248	84.742	84.742
0.94248	86.965	86.965
0.94248	89.352	89.352
0.94248	92.307	92.307
0.94248	95.605	95.605
0.94248	99.570	99.570
0.94248	101.41	101.41
0.94248	103.97	103.97
0.94248	107.94	107.94
0.94248	111.91	111.91
0.94248	115.51	115.51
0.94248	117.85	117.85
0.94248	122.00	122.00
0.94248	126.21	126.21
0.94248	128.47	128.47
0.94248	131.48	131.48
0.94248	136.03	136.03
0.94248	138.30	138.30
0.94248	141.94	141.94
0.94248	147.16	147.16
0.94248	149.13	149.13
0.94248	150.00	150.00
0.94248	150.03	150.03
0.94248	150.16	150.16
0.94248	150.36	150.36
0.94248	150.45	150.45
0.94248	150.70	150.70
0.94248	151.19	151.19
0.97389	29.276	29.276
0.97389	39.380	39.380
0.97389	46.795	46.795
0.97389	53.842	53.842
0.97389	59.531	59.531
0.97389	64.572	64.572
0.97389	68.717	68.717
0.97389	71.382	71.382
0.97389	75.424	75.424
0.97389	77.501	77.501
0.97389	77.517	77.517
0.97389	77.578	77.578
0.97389	77.700	77.700
0.97389	77.730	77.730
0.97389	77.966	77.966
0.97389	78.340	78.340
0.97389	78.759	78.759
0.97389	79.397	79.397
0.97389	80.420	80.420
0.97389	81.885	81.885
0.97389	83.126	83.126
0.97389	84.459	84.459
0.97389	86.485	86.485
0.97389	88.556	88.556
0.97389	91.241	91.241
0.97389	93.681	93.681
0.97389	97.050	97.050
0.97389	100.91	100.91
0.97389	102.96	102.96
0.97389	105.43	105.43
0.97389	109.19	109.19
0.97389	113.07	113.07
0.97389	117.08	117.08
0.97389	119.21	119.21
0.97389	123.18	123.18
0.97389	127.53	127.53
0.97389	130.76	130.76
0.97389	132.65	132.65
0.97389	137.24	137.24
0.97389	140.32	140.32
0.97389	142.90	142.90
0.97389	148.19	148.19
0.97389	151.57	151.57
0.97389	153.71	153.71
0.97389	155.00	155.00
0.97389	155.03	155.03
0.97389	155.14	155.14
0.97389	155.39	155.39
0.97389	155.43	155.43
0.97389	155.69	155.69
1.0053	30.171	30.171
1.0053	40.213	40.213
1.0053	47.750	47.750
1.0053	54.920	54.920
1.0053	60.841	60.841
1.0053	65.933	65.933
1.0053	70.212	70.212
1.0053	72.818	72.818
1.0053	76.957	76.957
1.0053	80.001	80.001
1.0053	80.016	80.016
1.0053	80.071	80.071
1.0053	80.193	80.193
1.0053	80.232	80.232
1.0053	80.403	80.403
1.0053	80.690	80.690
1.0053	81.043	81.043
1.0053	81.548	81.548
1.0053	82.580	82.580
1.0053	84.056	84.056
1.0053	85.122	85.122
1.0053	86.267	86.267
1.0053	88.176	88.176
1.0053	90.258	90.258
1.0053	93.119	93.119
1.0053	95.092	95.092
1.0053	98.564	98.564
1.0053	102.20	102.20
1.0053	104.52	104.52
1.0053	106.96	106.96
1.0053	110.46	110.46
1.0053	114.28	114.28
1.0053	118.44	118.44
1.0053	120.72	120.72
1.0053	124.40	124.40
1.0053	128.68	128.68
1.0053	132.89	132.89
1.0053	134.07	134.07
1.0053	138.37	138.37
1.0053	142.48	142.48
1.0053	143.91	143.91
1.0053	149.17	149.17
1.0053	153.55	153.55
1.0053	155.00	155.00
1.0053	157.29	157.29
1.0053	160.00	160.00
1.0053	160.02	160.02
1.0053	160.05	160.05
1.0053	160.15	160.15
1.0053	160.41	160.41
1.0367	31.070	31.070
1.0367	41.045	41.045
1.0367	48.696	48.696
1.0367	55.974	55.974
1.0367	62.127	62.127
1.0367	67.291	67.291
1.0367	71.694	71.694
1.0367	74.268	74.268
1.0367	78.428	78.428
1.0367	82.364	82.364
1.0367	82.501	82.501
1.0367	82.519	82.519
1.0367	82.590	82.590
1.0367	82.738	82.738
1.0367	82.765	82.765
1.0367	83.025	83.025
1.0367	83.405	83.405
1.0367	83.882	83.882
1.0367	84.836	84.836
1.0367	86.148	86.148
1.0367	87.107	87.107
1.0367	88.228	88.228
1.0367	89.835	89.835
1.0367	92.066	92.066
1.0367	94.904	94.904
1.0367	96.629	96.629
1.0367	100.12	100.12
1.0367	103.48	103.48
1.0367	106.06	106.06
1.0367	108.53	108.53
1.0367	111.76	111.76
1.0367	115.54	115.54
1.0367	119.66	119.66
1.0367	122.31	122.31
1.0367	125.64	125.64
1.0367	129.79	129.79
1.0367	134.38	134.38
1.0367	136.08	136.08
1.0367	139.53	139.53
1.0367	144.34	144.34
1.0367	145.33	145.33
1.0367	150.18	150.18
1.0367	154.90	154.90
1.0367	156.34	156.34
1.0367	156.76	156.76
1.0367	161.16	161.16
1.0367	165.00	165.00
1.0367	165.03	165.03
1.0367	165.13	165.13
1.0367	165.36	165.36
1.0681	31.973	31.973
1.0681	41.877	41.877
1.0681	49.633	49.633
1.0681	57.006	57.006
1.0681	63.387	63.387
1.0681	68.642	68.642
1.0681	73.159	73.159
1.0681	75.742	75.742
1.0681	79.851	79.851
1.0681	84.096	84.096
1.0681	85.001	85.001
1.0681	85.016	85.016
1.0681	85.078	85.078
1.0681	85.226	85.226
1.0681	85.272	85.272
1.0681	85.485	85.485
1.0681	85.845	85.845
1.0681	86.285	86.285
1.0681	87.094	87.094
1.0681	88.117	88.117
1.0681	89.188	89.188
1.0681	90.268	90.268
1.0681	91.532	91.532
1.0681	93.936	93.936
1.0681	96.545	96.545
1.0681	98.367	98.367
1.0681	101.69	101.69
1.0681	104.78	104.78
1.0681	107.58	107.58
1.0681	110.12	110.12
1.0681	113.09	113.09
1.0681	116.85	116.85
1.0681	120.81	120.81
1.0681	123.92	123.92
1.0681	126.91	126.91
1.0681	130.92	130.92
1.0681	135.57	135.57
1.0681	138.21	138.21
1.0681	140.79	140.79
1.0681	145.47	145.47
1.0681	147.54	147.54
1.0681	151.25	151.25
1.0681	155.39	155.39
1.0681	155.93	155.93
1.0681	158.78	158.78
1.0681	162.20	162.20
1.0681	167.00	167.00
1.0681	167.63	167.63
1.0681	170.00	170.00
1.0681	170.00	170.00
1.0996	32.879	32.879
1.0996	42.710	42.710
1.0996	50.563	50.563
1.0996	58.017	58.017
1.0996	64.620	64.620
1.0996	69.985	69.985
1.0996	74.607	74.607
1.0996	77.246	77.246
1.0996	81.242	81.242
1.0996	85.680	85.680
1.0996	87.501	87.501
1.0996	87.516	87.516
1.0996	87.574	87.574
1.0996	87.716	87.716
1.0996	87.792	87.792
1.0996	87.961	87.961
1.0996	88.292	88.292
1.0996	88.678	88.678
1.0996	89.261	89.261
1.0996	90.111	90.111
1.0996	91.345	91.345
1.0996	92.281	92.281
1.0996	93.366	93.366
1.0996	95.809	95.809
1.0996	98.112	98.112
1.0996	100.28	100.28
1.0996	103.23	103.23
1.0996	106.14	106.14
1.0996	109.08	109.08
1.0996	111.70	111.70
1.0996	114.47	114.47
1.0996	118.19	118.19
1.0996	121.96	121.96
1.0996	125.48	125.48
1.0996	128.22	128.22
1.0996	132.07	132.07
1.0996	136.70	136.70
1.0996	140.13	140.13
1.0996	142.24	142.24
1.0996	146.46	146.46
1.0996	149.87	149.87
1.0996	152.48	152.48
1.0996	154.44	154.44
1.0996	156.87	156.87
1.0996	160.77	160.77
1.0996	163.28	163.28
1.0996	166.63	166.63
1.0996	168.04	168.04
1.0996	170.41	170.41
1.0996	172.74	172.74
1.1310	33.787	33.787
1.1310	43.544	43.544
1.1310	51.486	51.486
1.1310	59.009	59.009
1.1310	65.826	65.826
1.1310	71.316	71.316
1.1310	76.039	76.039
1.1310	78.777	78.777
1.1310	82.615	82.615
1.1310	87.180	87.180
1.1310	90.001	90.001
1.1310	90.015	90.015
1.1310	90.068	90.068
1.1310	90.196	90.196
1.1310	90.315	90.315
1.1310	90.409	90.409
1.1310	90.673	90.673
1.1310	90.977	90.977
1.1310	91.415	91.415
1.1310	92.280	92.280
1.1310	93.448	93.448
1.1310	94.277	94.277
1.1310	95.389	95.389
1.1310	97.628	97.628
1.1310	99.733	99.733
1.1310	102.27	102.27
1.1310	104.73	104.73
1.1310	107.59	107.59
1.1310	110.56	110.56
1.1310	113.27	113.27
1.1310	115.92	115.92
1.1310	119.55	119.55
1.1310	123.13	123.13
1.1310	126.97	126.97
1.1310	129.58	129.58
1.1310	133.26	133.26
1.1310	137.79	137.79
1.1310	141.75	141.75
1.1310	143.91	143.91
1.1310	147.46	147.46
1.1310	151.85	151.85
1.1310	153.49	153.49
1.1310	154.18	154.18
1.1310	157.81	157.81
1.1310	162.55	162.55
1.1310	164.59	164.59
1.1310	165.64	165.64
1.1310	169.02	169.02
1.1310	169.43	169.43
1.1310	174.25	174.25
1.1624	34.698	34.698
1.1624	44.380	44.380
1.1624	52.403	52.403
1.1624	59.984	59.984
1.1624	67.003	67.003
1.1624	72.631	72.631
1.1624	77.456	77.456
1.1624	80.332	80.332
1.1624	83.984	83.984
1.1624	88.615	88.615
1.1624	92.380	92.380
1.1624	92.502	92.502
1.1624	92.517	92.517
1.1624	92.585	92.585
1.1624	92.747	92.747
1.1624	92.841	92.841
1.1624	93.015	93.015
1.1624	93.345	93.345
1.1624	93.762	93.762
1.1624	94.530	94.530
1.1624	95.415	95.415
1.1624	96.394	96.394
1.1624	97.531	97.531
1.1624	99.370	99.370
1.1624	101.49	101.49
1.1624	104.26	104.26
1.1624	106.21	106.21
1.1624	109.14	109.14
1.1624	112.02	112.02
1.1624	114.79	114.79
1.1624	117.45	117.45
1.1624	120.91	120.91
1.1624	124.36	124.36
1.1624	128.36	128.36
1.1624	131.00	131.00
1.1624	134.49	134.49
1.1624	138.88	138.88
1.1624	143.17	143.17
1.1624	145.70	145.70
1.1624	148.49	148.49
1.1624	152.54	152.54
1.1624	153.28	153.28
1.1624	156.48	156.48
1.1624	158.77	158.77
1.1624	163.95	163.95
1.1624	164.64	164.64
1.1624	166.32	166.32
1.1624	168.45	168.45
1.1624	169.99	169.99
1.1624	174.19	174.19
1.1938	35.611	35.611
1.1938	45.219	45.219
1.1938	53.314	53.314
1.1938	60.946	60.946
1.1938	68.154	68.154
1.1938	73.927	73.927
1.1938	78.862	78.862
1.1938	81.903	81.903
1.1938	85.360	85.360
1.1938	90.001	90.001
1.1938	94.093	94.093
1.1938	95.002	95.002
1.1938	95.015	95.015
1.1938	95.073	95.073
1.1938	95.219	95.219
1.1938	95.367	95.367
1.1938	95.478	95.478
1.1938	95.793	95.793
1.1938	96.158	96.158
1.1938	96.699	96.699
1.1938	97.416	97.416
1.1938	98.617	98.617
1.1938	99.695	99.695
1.1938	101.09	101.09
1.1938	103.37	103.37
1.1938	106.17	106.17
1.1938	107.76	107.76
1.1938	110.76	110.76
1.1938	113.48	113.48
1.1938	116.29	116.29
1.1938	119.05	119.05
1.1938	122.27	122.27
1.1938	125.66	125.66
1.1938	129.68	129.68
1.1938	132.48	132.48
1.1938	135.75	135.75
1.1938	139.98	139.98
1.1938	144.49	144.49
1.1938	147.47	147.47
1.1938	149.61	149.61
1.1938	151.59	151.59
1.1938	154.44	154.44
1.1938	158.97	158.97
1.1938	159.82	159.82
1.1938	163.64	163.64
1.1938	165.06	165.06
1.1938	167.48	167.48
1.1938	168.38	168.38
1.1938	170.95	170.95
1.1938	173.25	173.25
1.2252	36.526	36.526
1.2252	46.060	46.060
1.2252	54.220	54.220
1.2252	61.895	61.895
1.2252	69.278	69.278
1.2252	75.204	75.204
1.2252	80.256	80.256
1.2252	83.483	83.483
1.2252	86.755	86.755
1.2252	91.352	91.352
1.2252	95.659	95.659
1.2252	97.502	97.502
1.2252	97.514	97.514
1.2252	97.567	97.567
1.2252	97.701	97.701
1.2252	97.893	97.893
1.2252	97.933	97.933
1.2252	98.194	98.194
1.2252	98.453	98.453
1.2252	98.841	98.841
1.2252	99.631	99.631
1.2252	100.84	100.84
1.2252	101.81	101.81
1.2252	102.94	102.94
1.2252	105.33	105.33
1.2252	107.90	107.90
1.2252	109.51	109.51
1.2252	112.41	112.41
1.2252	114.95	114.95
1.2252	117.78	117.78
1.2252	120.68	120.68
1.2252	123.64	123.64
1.2252	127.03	127.03
1.2252	130.93	130.93
1.2252	133.99	133.99
1.2252	137.05	137.05
1.2252	141.09	141.09
1.2252	145.76	145.76
1.2252	149.13	149.13
1.2252	150.64	150.64
1.2252	150.86	150.86
1.2252	155.52	155.52
1.2252	160.58	160.58
1.2252	161.83	161.83
1.2252	162.64	162.64
1.2252	166.07	166.07
1.2252	166.50	166.50
1.2252	170.63	170.63
1.2252	171.91	171.91
1.2252	172.30	172.30
1.2566	37.443	37.443
1.2566	46.904	46.904
1.2566	55.122	55.122
1.2566	62.833	62.833
1.2566	70.377	70.377
1.2566	76.459	76.459
1.2566	81.638	81.638
1.2566	85.064	85.064
1.2566	88.175	88.175
1.2566	92.681	92.681
1.2566	97.142	97.142
1.2566	99.944	99.944
1.2566	100.00	100.00
1.2566	100.02	100.02
1.2566	100.08	100.08
1.2566	100.24	100.24
1.2566	100.42	100.42
1.2566	100.52	100.52
1.2566	100.83	100.83
1.2566	101.21	101.21
1.2566	101.94	101.94
1.2566	102.97	102.97
1.2566	103.89	103.89
1.2566	104.99	104.99
1.2566	107.30	107.30
1.2566	109.49	109.49
1.2566	111.46	111.46
1.2566	114.04	114.04
1.2566	116.48	116.48
1.2566	119.26	119.26
1.2566	122.31	122.31
1.2566	125.03	125.03
1.2566	128.45	128.45
1.2566	132.15	132.15
1.2566	135.52	135.52
1.2566	138.36	138.36
1.2566	142.23	142.23
1.2566	147.00	147.00
1.2566	149.69	149.69
1.2566	150.63	150.63
1.2566	152.27	152.27
1.2566	156.57	156.57
1.2566	161.64	161.64
1.2566	161.64	161.64
1.2566	164.31	164.31
1.2566	165.53	165.53
1.2566	167.10	167.10
1.2566	171.35	171.35
1.2566	172.75	172.75
1.2566	173.12	173.12
1.2881	38.362	38.362
1.2881	47.752	47.752
1.2881	56.020	56.020
1.2881	63.762	63.762
1.2881	71.453	71.453
1.2881	77.691	77.691
1.2881	83.007	83.007
1.2881	86.638	86.638
1.2881	89.627	89.627
1.2881	93.999	93.999
1.2881	98.559	98.559
1.2881	101.71	101.71
1.2881	102.50	102.50
1.2881	102.51	102.51
1.2881	102.57	102.57
1.2881	102.71	102.71
1.2881	102.95	102.95
1.2881	102.99	102.99
1.2881	103.30	103.30
1.2881	103.63	103.63
1.2881	104.22	104.22
1.2881	105.00	105.00
1.2881	106.07	106.07
1.2881	107.18	107.18
1.2881	109.18	109.18
1.2881	111.12	111.12
1.2881	113.51	113.51
1.2881	115.64	115.64
1.2881	118.08	118.08
1.2881	120.76	120.76
1.2881	123.89	123.89
1.2881	126.49	126.49
1.2881	129.91	129.91
1.2881	133.39	133.39
1.2881	137.04	137.04
1.2881	139.69	139.69
1.2881	143.41	143.41
1.2881	148.20	148.20
1.2881	148.75	148.75
1.2881	152.01	152.01
1.2881	153.83	153.83
1.2881	157.64	157.64
1.2881	160.64	160.64
1.2881	162.69	162.69
1.2881	164.55	164.55
1.2881	166.54	166.54
1.2881	168.30	168.30
1.2881	170.41	170.41
1.2881	173.78	173.78
1.2881	175.49	175.49
1.3195	39.282	39.282
1.3195	48.603	48.603
1.3195	56.914	56.914
1.3195	64.683	64.683
1.3195	72.507	72.507
1.3195	78.900	78.900
1.3195	84.361	84.361
1.3195	88.199	88.199
1.3195	91.117	91.117
1.3195	95.314	95.314
1.3195	99.925	99.925
1.3195	103.36	103.36
1.3195	105.00	105.00
1.3195	105.01	105.01
1.3195	105.06	105.06
1.3195	105.20	105.20
1.3195	105.44	105.44
1.3195	105.49	105.49
1.3195	105.75	105.75
1.3195	106.00	106.00
1.3195	106.40	106.40
1.3195	107.15	107.15
1.3195	108.34	108.34
1.3195	109.42	109.42
1.3195	110.97	110.97
1.3195	112.91	112.91
1.3195	115.55	115.55
1.3195	117.23	117.23
1.3195	119.76	119.76
1.3195	122.27	122.27
1.3195	125.41	125.41
1.3195	128.03	128.03
1.3195	131.39	131.39
1.3195	134.66	134.66
1.3195	138.53	138.53
1.3195	141.04	141.04
1.3195	144.64	144.64
1.3195	147.80	147.80
1.3195	149.38	149.38
1.3195	153.33	153.33
1.3195	155.45	155.45
1.3195	158.72	158.72
1.3195	159.65	159.65
1.3195	163.58	163.58
1.3195	163.75	163.75
1.3195	168.19	168.19
1.3195	169.46	169.46
1.3195	169.97	169.97
1.3195	174.75	174.75
1.3195	176.61	176.61
1.3509	40.203	40.203
1.3509	49.457	49.457
1.3509	57.805	57.805
1.3509	65.598	65.598
1.3509	73.541	73.541
1.3509	80.086	80.086
1.3509	85.697	85.697
1.3509	89.743	89.743
1.3509	92.643	92.643
1.3509	96.634	96.634
1.3509	101.25	101.25
1.3509	104.96	104.96
1.3509	107.50	107.50
1.3509	107.51	107.51
1.3509	107.54	107.54
1.3509	107.62	107.62
1.3509	107.78	107.78
1.3509	108.02	108.02
1.3509	108.06	108.06
1.3509	108.37	108.37
1.3509	108.72	108.72
1.3509	109.46	109.46
1.3509	110.62	110.62
1.3509	111.62	111.62
1.3509	112.74	112.74
1.3509	114.85	114.85
1.3509	117.47	117.47
1.3509	118.91	118.91
1.3509	121.49	121.49
1.3509	123.81	123.81
1.3509	126.87	126.87
1.3509	129.65	129.65
1.3509	132.86	132.86
1.3509	136.01	136.01
1.3509	139.98	139.98
1.3509	142.41	142.41
1.3509	145.93	145.93
1.3509	146.85	146.85
1.3509	150.53	150.53
1.3509	154.66	154.66
1.3509	157.07	157.07
1.3509	158.65	158.65
1.3509	159.85	159.85
1.3509	162.61	162.61
1.3509	164.83	164.83
1.3509	168.52	168.52
1.3509	169.38	169.38
1.3509	171.95	171.95
1.3509	175.69	175.69
1.3509	175.75	175.75
1.3823	41.125	41.125
1.3823	50.315	50.315
1.3823	58.693	58.693
1.3823	66.507	66.507
1.3823	74.557	74.557
1.3823	81.250	81.250
1.3823	87.014	87.014
1.3823	91.266	91.266
1.3823	94.206	94.206
1.3823	97.966	97.966
1.3823	102.55	102.55
1.3823	106.50	106.50
1.3823	109.46	109.46
1.3823	110.00	110.00
1.3823	110.01	110.01
1.3823	110.07	110.07
1.3823	110.21	110.21
1.3823	110.50	110.50
1.3823	110.56	110.56
1.3823	110.85	110.85
1.3823	111.16	111.16
1.3823	111.83	111.83
1.3823	112.83	112.83
1.3823	113.71	113.71
1.3823	114.70	114.70
1.3823	116.86	116.86
1.3823	119.20	119.20
1.3823	120.79	120.79
1.3823	123.25	123.25
1.3823	125.39	125.39
1.3823	128.28	128.28
1.3823	131.33	131.33
1.3823	134.31	134.31
1.3823	137.44	137.44
1.3823	141.37	141.37
1.3823	143.81	143.81
1.3823	145.91	145.91
1.3823	147.25	147.25
1.3823	151.67	151.67
1.3823	155.98	155.98
1.3823	157.65	157.65
1.3823	158.66	158.66
1.3823	161.04	161.04
1.3823	161.64	161.64
1.3823	165.91	165.91
1.3823	167.57	167.57
1.3823	170.45	170.45
1.3823	173.90	173.90
1.3823	174.76	174.76
1.3823	176.82	176.82
1.4137	42.048	42.048
1.4137	51.177	51.177
1.4137	59.578	59.578
1.4137	67.412	67.412
1.4137	75.555	75.555
1.4137	82.393	82.393
1.4137	88.308	88.308
1.4137	92.768	92.768
1.4137	95.798	95.798
1.4137	99.314	99.314
1.4137	103.83	103.83
1.4137	108.00	108.00
1.4137	111.14	111.14
1.4137	112.50	112.50
1.4137	112.51	112.51
1.4137	112.56	112.56
1.4137	112.70	112.70
1.4137	112.97	112.97
1.4137	113.10	113.10
1.4137	113.33	113.33
1.4137	113.60	113.60
1.4137	114.14	114.14
1.4137	114.88	114.88
1.4137	115.85	115.85
1.4137	116.89	116.89
1.4137	118.87	118.87
1.4137	120.84	120.84
1.4137	122.84	122.84
1.4137	124.98	124.98
1.4137	127.04	127.04
1.4137	129.69	129.69
1.4137	133.01	133.01
1.4137	135.76	135.76
1.4137	138.95	138.95
1.4137	142.71	142.71
1.4137	144.96	144.96
1.4137	145.25	145.25
1.4137	148.61	148.61
1.4137	152.81	152.81
1.4137	156.66	156.66
1.4137	157.30	157.30
1.4137	160.20	160.20
1.4137	160.67	160.67
1.4137	162.32	162.32
1.4137	166.63	166.63
1.4137	167.00	167.00
1.4137	171.52	171.52
1.4137	173.84	173.84
1.4137	175.66	175.66
1.4137	178.02	178.02
1.4451	42.972	42.972
1.4451	52.042	52.042
1.4451	60.460	60.460
1.4451	68.313	68.313
1.4451	76.538	76.538
1.4451	83.515	83.515
1.4451	89.579	89.579
1.4451	94.248	94.248
1.4451	97.412	97.412
1.4451	100.68	100.68
1.4451	105.11	105.11
1.4451	109.47	109.47
1.4451	112.76	112.76
1.4451	115.00	115.00
1.4451	115.01	115.01
1.4451	115.06	115.06
1.4451	115.18	115.18
1.4451	115.43	115.43
1.4451	115.64	115.64
1.4451	115.75	115.75
1.4451	116.00	116.00
1.4451	116.33	116.33
1.4451	117.02	117.02
1.4451	118.12	118.12
1.4451	119.17	119.17
1.4451	120.78	120.78
1.4451	122.56	122.56
1.4451	124.94	124.94
1.4451	126.69	126.69
1.4451	128.75	128.75
1.4451	131.12	131.12
1.4451	134.65	134.65
1.4451	137.26	137.26
1.4451	140.53	140.53
1.4451	144.01	144.01
1.4451	144.02	144.02
1.4451	146.72	146.72
1.4451	149.99	149.99
1.4451	153.98	153.98
1.4451	155.66	155.66
1.4451	158.61	158.61
1.4451	159.70	159.70
1.4451	161.69	161.69
1.4451	163.70	163.70
1.4451	165.69	165.69
1.4451	168.10	168.10
1.4451	172.61	172.61
1.4451	172.93	172.93
1.4451	177.14	177.14
1.4451	179.43	179.43
1.4765	43.898	43.898
1.4765	52.911	52.911
1.4765	61.340	61.340
1.4765	69.211	69.211
1.4765	77.507	77.507
1.4765	84.617	84.617
1.4765	90.827	90.827
1.4765	95.706	95.706
1.4765	99.040	99.040
1.4765	102.08	102.08
1.4765	106.38	106.38
1.4765	110.89	110.89
1.4765	114.33	114.33
1.4765	117.45	117.45
1.4765	117.50	117.50
1.4765	117.52	117.52
1.4765	117.58	117.58
1.4765	117.73	117.73
1.4765	118.04	118.04
1.4765	118.18	118.18
1.4765	118.42	118.42
1.4765	118.69	118.69
1.4765	119.37	119.37
1.4765	120.44	120.44
1.4765	121.44	121.44
1.4765	122.60	122.60
1.4765	124.45	124.45
1.4765	126.99	126.99
1.4765	128.42	128.42
1.4765	130.51	130.51
1.4765	132.60	132.60
1.4765	136.21	136.21
1.4765	138.84	138.84
1.4765	142.14	142.14
1.4765	143.07	143.07
1.4765	145.34	145.34
1.4765	148.21	148.21
1.4765	151.38	151.38
1.4765	154.66	154.66
1.4765	155.19	155.19
1.4765	158.73	158.73
1.4765	159.88	159.88
1.4765	163.14	163.14
1.4765	164.75	164.75
1.4765	165.16	165.16
1.4765	169.21	169.21
1.4765	172.01	172.01
1.4765	173.73	173.73
1.4765	178.39	178.39
1.4765	179.88	179.88
1.5080	44.823	44.823
1.5080	53.784	53.784
1.5080	62.218	62.218
1.5080	70.106	70.106
1.5080	78.464	78.464
1.5080	85.701	85.701
1.5080	92.051	92.051
1.5080	97.141	97.141
1.5080	100.67	100.67
1.5080	103.51	103.51
1.5080	107.65	107.65
1.5080	112.29	112.29
1.5080	115.87	115.87
1.5080	119.17	119.17
1.5080	120.00	120.00
1.5080	120.01	120.01
1.5080	120.06	120.06
1.5080	120.20	120.20
1.5080	120.49	120.49
1.5080	120.72	120.72
1.5080	120.90	120.90
1.5080	121.15	121.15
1.5080	121.76	121.76
1.5080	122.72	122.72
1.5080	123.59	123.59
1.5080	124.52	124.52
1.5080	126.49	126.49
1.5080	128.90	128.90
1.5080	130.27	130.27
1.5080	132.29	132.29
1.5080	134.17	134.17
1.5080	137.69	137.69
1.5080	140.52	140.52
1.5080	142.12	142.12
1.5080	143.74	143.74
1.5080	146.69	146.69
1.5080	149.71	149.71
1.5080	152.75	152.75
1.5080	153.67	153.67
1.5080	156.44	156.44
1.5080	157.76	157.76
1.5080	161.12	161.12
1.5080	163.81	163.81
1.5080	164.59	164.59
1.5080	166.68	166.68
1.5080	170.33	170.33
1.5080	171.09	171.09
1.5080	174.87	174.87
1.5080	178.97	178.97
1.5080	179.50	179.50
1.5394	45.750	45.750
1.5394	54.660	54.660
1.5394	63.095	63.095
1.5394	70.999	70.999
1.5394	79.409	79.409
1.5394	86.769	86.769
1.5394	93.252	93.252
1.5394	98.551	98.551
1.5394	102.30	102.30
1.5394	104.99	104.99
1.5394	108.93	108.93
1.5394	113.65	113.65
1.5394	117.39	117.39
1.5394	120.74	120.74
1.5394	122.50	122.50
1.5394	122.51	122.51
1.5394	122.56	122.56
1.5394	122.69	122.69
1.5394	122.96	122.96
1.5394	123.27	123.27
1.5394	123.38	123.38
1.5394	123.63	123.63
1.5394	124.12	124.12
1.5394	124.84	124.84
1.5394	125.71	125.71
1.5394	126.69	126.69
1.5394	128.57	128.57
1.5394	130.65	130.65
1.5394	132.28	132.28
1.5394	134.04	134.04
1.5394	135.83	135.83
1.5394	139.10	139.10
1.5394	141.18	141.18
1.5394	142.27	142.27
1.5394	145.32	145.32
1.5394	148.13	148.13
1.5394	151.21	151.21
1.5394	152.67	152.67
1.5394	154.10	154.10
1.5394	156.79	156.79
1.5394	157.76	157.76
1.5394	162.33	162.33
1.5394	162.87	162.87
1.5394	166.04	166.04
1.5394	168.23	168.23
1.5394	170.17	170.17
1.5394	171.47	171.47
1.5394	176.04	176.04
1.5394	178.07	178.07
1.5394	180.57	180.57
1.5708	46.677	46.677
1.5708	55.540	55.540
1.5708	63.970	63.970
1.5708	71.890	71.890
1.5708	80.344	80.344
1.5708	87.820	87.820
1.5708	94.431	94.431
1.5708	99.935	99.935
1.5708	103.91	103.91
1.5708	106.50	106.50
1.5708	110.22	110.22
1.5708	115.00	115.00
1.5708	118.89	118.89
1.5708	122.26	122.26
1.5708	125.00	125.00
1.5708	125.01	125.01
1.5708	125.06	125.06
1.5708	125.18	125.18
1.5708	125.41	125.41
1.5708	125.77	125.77
1.5708	125.82	125.82
1.5708	126.08	126.08
1.5708	126.33	126.33
1.5708	126.97	126.97
1.5708	127.98	127.98
1.5708	128.99	128.99
1.5708	130.62	130.62
1.5708	132.37	132.37
1.5708	134.38	134.38
1.5708	135.78	135.78
1.5708	137.59	137.59
1.5708	140.24	140.24
1.5708	140.51	140.51
1.5708	144.04	144.04
1.5708	146.85	146.85
1.5708	149.67	149.67
1.5708	151.68	151.68
1.5708	152.71	152.71
1.5708	155.45	155.45
1.5708	155.82	155.82
1.5708	159.13	159.13
1.5708	161.93	161.93
1.5708	163.52	163.52
1.5708	167.49	167.49
1.5708	169.25	169.25
1.5708	169.79	169.79
1.5708	172.65	172.65
1.5708	177.16	177.16
1.5708	177.22	177.22
1.5708	181.64	181.64
1.6022	47.605	47.605
1.6022	56.423	56.423
1.6022	64.843	64.843
1.6022	72.780	72.780
1.6022	81.271	81.271
1.6022	88.856	88.856
1.6022	95.588	95.588
1.6022	101.29	101.29
1.6022	105.49	105.49
1.6022	108.06	108.06
1.6022	111.53	111.53
1.6022	116.32	116.32
1.6022	120.37	120.37
1.6022	123.74	123.74
1.6022	127.45	127.45
1.6022	127.50	127.50
1.6022	127.52	127.52
1.6022	127.57	127.57
1.6022	127.72	127.72
1.6022	128.02	128.02
1.6022	128.36	128.36
1.6022	128.49	128.49
1.6022	128.72	128.72
1.6022	129.33	129.33
1.6022	130.32	130.32
1.6022	131.31	131.31
1.6022	132.57	132.57
1.6022	134.20	134.20
1.6022	136.43	136.43
1.6022	137.55	137.55
1.6022	139.29	139.29
1.6022	139.40	139.40
1.6022	141.96	141.96
1.6022	145.78	145.78
1.6022	148.39	148.39
1.6022	150.68	150.68
1.6022	151.31	151.31
1.6022	154.18	154.18
1.6022	154.85	154.85
1.6022	156.79	156.79
1.6022	160.55	160.55
1.6022	160.99	160.99
1.6022	164.71	164.71
1.6022	168.34	168.34
1.6022	168.93	168.93
1.6022	171.36	171.36
1.6022	173.89	173.89
1.6022	176.26	176.26
1.6022	178.42	178.42
1.6022	182.74	182.74
1.6336	48.533	48.533
1.6336	57.310	57.310
1.6336	65.716	65.716
1.6336	73.668	73.668
1.6336	82.189	82.189
1.6336	89.879	89.879
1.6336	96.724	96.724
1.6336	102.62	102.62
1.6336	107.05	107.05
1.6336	109.66	109.66
1.6336	112.86	112.86
1.6336	117.63	117.63
1.6336	121.85	121.85
1.6336	125.17	125.17
1.6336	129.13	129.13
1.6336	130.00	130.00
1.6336	130.01	130.01
1.6336	130.06	130.06
1.6336	130.19	130.19
1.6336	130.47	130.47
1.6336	130.91	130.91
1.6336	130.95	130.95
1.6336	131.23	131.23
1.6336	131.75	131.75
1.6336	132.67	132.67
1.6336	133.57	133.57
1.6336	134.49	134.49
1.6336	136.20	136.20
1.6336	138.33	138.33
1.6336	138.35	138.35
1.6336	139.47	139.47
1.6336	141.22	141.22
1.6336	143.51	143.51
1.6336	147.43	147.43
1.6336	149.69	149.69
1.6336	149.97	149.97
1.6336	153.00	153.00
1.6336	153.89	153.89
1.6336	155.65	155.65
1.6336	158.16	158.16
1.6336	160.06	160.06
1.6336	161.98	161.98
1.6336	165.93	165.93
1.6336	167.42	167.42
1.6336	170.33	170.33
1.6336	172.93	172.93
1.6336	175.19	175.19
1.6336	175.36	175.36
1.6336	179.61	179.61
1.6336	183.80	183.80
1.6650	49.462	49.462
1.6650	58.200	58.200
1.6650	66.588	66.588
1.6650	74.556	74.556
1.6650	83.100	83.100
1.6650	90.889	90.889
1.6650	97.841	97.841
1.6650	103.92	103.92
1.6650	108.58	108.58
1.6650	111.29	111.29
1.6650	114.22	114.22
1.6650	118.93	118.93
1.6650	123.31	123.31
1.6650	126.58	126.58
1.6650	130.66	130.66
1.6650	132.50	132.50
1.6650	132.51	132.51
1.6650	132.56	132.56
1.6650	132.68	132.68
1.6650	132.95	132.95
1.6650	133.41	133.41
1.6650	133.47	133.47
1.6650	133.74	133.74
1.6650	134.15	134.15
1.6650	134.91	134.91
1.6650	135.69	135.69
1.6650	136.59	136.59
1.6650	137.40	137.40
1.6650	138.29	138.29
1.6650	140.08	140.08
1.6650	141.52	141.52
1.6650	143.01	143.01
1.6650	145.18	145.18
1.6650	148.70	148.70
1.6650	148.97	148.97
1.6650	151.66	151.66
1.6650	152.92	152.92
1.6650	154.71	154.71
1.6650	157.14	157.14
1.6650	159.12	159.12
1.6650	159.55	159.55
1.6650	163.42	163.42
1.6650	166.51	166.51
1.6650	167.18	167.18
1.6650	171.70	171.70
1.6650	174.46	174.46
1.6650	174.49	174.49
1.6650	176.57	176.57
1.6650	180.79	180.79
1.6650	182.91	182.91
1.6965	50.391	50.391
1.6965	59.093	59.093
1.6965	67.459	67.459
1.6965	75.443	75.443
1.6965	84.004	84.004
1.6965	91.888	91.888
1.6965	98.941	98.941
1.6965	105.19	105.19
1.6965	110.08	110.08
1.6965	112.95	112.95
1.6965	115.60	115.60
1.6965	120.23	120.23
1.6965	124.76	124.76
1.6965	127.98	127.98
1.6965	132.14	132.14
1.6965	135.00	135.00
1.6965	135.01	135.01
1.6965	135.06	135.06
1.6965	135.17	135.17
1.6965	135.42	135.42
1.6965	135.83	135.83
1.6965	136.02	136.02
1.6965	136.24	136.24
1.6965	136.44	136.44
1.6965	136.46	136.46
1.6965	137.03	137.03
1.6965	137.91	137.91
1.6965	138.87	138.87
1.6965	140.39	140.39
1.6965	141.81	141.81
1.6965	143.57	143.57
1.6965	144.82	144.82
1.6965	146.99	146.99
1.6965	147.70	147.70
1.6965	150.43	150.43
1.6965	151.95	151.95
1.6965	153.43	153.43
1.6965	156.39	156.39
1.6965	158.19	158.19
1.6965	158.67	158.67
1.6965	160.98	160.98
1.6965	164.84	164.84
1.6965	165.60	165.60
1.6965	168.49	168.49
1.6965	173.01	173.01
1.6965	173.56	173.56
1.6965	176.06	176.06
1.6965	178.01	178.01
1.6965	181.98	181.98
1.6965	182.03	182.03
1.7279	51.320	51.320
1.7279	59.990	59.990
1.7279	68.329	68.329
1.7279	76.329	76.329
1.7279	84.903	84.903
1.7279	92.876	92.876
1.7279	100.02	100.02
1.7279	106.43	106.43
1.7279	111.54	111.54
1.7279	114.62	114.62
1.7279	117.02	117.02
1.7279	121.53	121.53
1.7279	126.19	126.19
1.7279	129.38	129.38
1.7279	133.58	133.58
1.7279	135.52	135.52
1.7279	137.50	137.50
1.7279	137.51	137.51
1.7279	137.55	137.55
1.7279	137.62	137.62
1.7279	137.78	137.78
1.7279	138.06	138.06
1.7279	138.54	138.54
1.7279	138.58	138.58
1.7279	138.85	138.85
1.7279	139.34	139.34
1.7279	140.26	140.26
1.7279	141.21	141.21
1.7279	142.38	142.38
1.7279	143.67	143.67
1.7279	145.49	145.49
1.7279	146.71	146.71
1.7279	146.76	146.76
1.7279	148.88	148.88
1.7279	150.99	150.99
1.7279	151.86	151.86
1.7279	155.25	155.25
1.7279	157.25	157.25
1.7279	158.01	158.01
1.7279	160.30	160.30
1.7279	162.45	162.45
1.7279	164.68	164.68
1.7279	166.22	166.22
1.7279	169.87	169.87
1.7279	172.66	172.66
1.7279	174.28	174.28
1.7279	177.62	177.62
1.7279	179.51	179.51
1.7279	181.14	181.14
1.7279	183.17	183.17
1.7593	52.250	52.250
1.7593	60.889	60.889
1.7593	69.200	69.200
1.7593	77.215	77.215
1.7593	85.797	85.797
1.7593	93.854	93.854
1.7593	101.09	101.09
1.7593	107.65	107.65
1.7593	112.97	112.97
1.7593	116.30	116.30
1.7593	118.49	118.49
1.7593	122.84	122.84
1.7593	127.59	127.59
1.7593	130.78	130.78
1.7593	134.58	134.58
1.7593	134.98	134.98
1.7593	139.41	139.41
1.7593	140.00	140.00
1.7593	140.01	140.01
1.7593	140.06	140.06
1.7593	140.18	140.18
1.7593	140.46	140.46
1.7593	140.96	140.96
1.7593	141.14	141.14
1.7593	141.38	141.38
1.7593	141.76	141.76
1.7593	142.63	142.63
1.7593	143.49	143.49
1.7593	144.31	144.31
1.7593	145.68	145.68
1.7593	145.72	145.72
1.7593	147.27	147.27
1.7593	148.85	148.85
1.7593	150.03	150.03
1.7593	150.80	150.80
1.7593	153.33	153.33
1.7593	156.32	156.32
1.7593	157.05	157.05
1.7593	159.59	159.59
1.7593	162.01	162.01
1.7593	163.77	163.77
1.7593	163.97	163.97
1.7593	167.57	167.57
1.7593	171.30	171.30
1.7593	171.76	171.76
1.7593	175.53	175.53
1.7593	179.17	179.17
1.7593	180.26	180.26
1.7593	181.05	181.05
1.7593	184.38	184.38
1.7907	53.180	53.180
1.7907	61.792	61.792
1.7907	70.070	70.070
1.7907	78.100	78.100
1.7907	86.686	86.686
1.7907	94.823	94.823
1.7907	102.14	102.14
1.7907	108.84	108.84
1.7907	114.37	114.37
1.7907	117.97	117.97
1.7907	120.00	120.00
1.7907	124.15	124.15
1.7907	128.97	128.97
1.7907	132.21	132.21
1.7907	133.63	133.63
1.7907	136.35	136.35
1.7907	140.94	140.94
1.7907	142.50	142.50
1.7907	142.51	142.51
1.7907	142.56	142.56
1.7907	142.67	142.67
1.7907	142.93	142.93
1.7907	143.41	143.41
1.7907	143.70	143.70
1.7907	143.92	143.92
1.7907	144.18	144.18
1.7907	144.72	144.72
1.7907	144.92	144.92
1.7907	145.61	145.61
1.7907	146.41	146.41
1.7907	147.74	147.74
1.7907	149.04	149.04
1.7907	149.06	149.06
1.7907	151.00	151.00
1.7907	152.69	152.69
1.7907	154.92	154.92
1.7907	155.39	155.39
1.7907	158.78	158.78
1.7907	161.19	161.19
1.7907	162.86	162.86
1.7907	163.77	163.77
1.7907	165.53	165.53
1.7907	168.91	168.91
1.7907	170.86	170.86
1.7907	172.78	172.78
1.7907	176.78	176.78
1.7907	179.38	179.38
1.7907	180.69	180.69
1.7907	182.64	182.64
1.7907	185.62	185.62
1.8221	54.111	54.111
1.8221	62.698	62.698
1.8221	70.940	70.940
1.8221	78.985	78.985
1.8221	87.572	87.572
1.8221	95.783	95.783
1.8221	103.18	103.18
1.8221	110.01	110.01
1.8221	115.73	115.73
1.8221	119.61	119.61
1.8221	121.56	121.56
1.8221	125.48	125.48
1.8221	130.33	130.33
1.8221	132.69	132.69
1.8221	133.65	133.65
1.8221	137.69	137.69
1.8221	142.39	142.39
1.8221	143.73	143.73
1.8221	145.00	145.00
1.8221	145.01	145.01
1.8221	145.05	145.05
1.8221	145.17	145.17
1.8221	145.41	145.41
1.8221	145.83	145.83
1.8221	146.27	146.27
1.8221	146.37	146.37
1.8221	146.55	146.55
1.8221	147.04	147.04
1.8221	147.82	147.82
1.8221	148.10	148.10
1.8221	148.69	148.69
1.8221	149.73	149.73
1.8221	150.95	150.95
1.8221	153.12	153.12
1.8221	154.46	154.46
1.8221	154.56	154.56
1.8221	156.67	156.67
1.8221	160.38	160.38
1.8221	161.95	161.95
1.8221	162.88	162.88
1.8221	165.52	165.52
1.8221	167.15	167.15
1.8221	169.96	169.96
1.8221	170.24	170.24
1.8221	174.28	174.28
1.8221	178.05	178.05
1.8221	178.50	178.50
1.8221	182.17	182.17
1.8221	184.25	184.25
1.8221	186.92	186.92
1.8535	55.042	55.042
1.8535	63.606	63.606
1.8535	71.811	71.811
1.8535	79.870	79.870
1.8535	88.454	88.454
1.8535	96.736	96.736
1.8535	104.20	104.20
1.8535	111.16	111.16
1.8535	117.05	117.05
1.8535	121.23	121.23
1.8535	123.17	123.17
1.8535	126.82	126.82
1.8535	131.67	131.67
1.8535	131.75	131.75
1.8535	135.11	135.11
1.8535	139.02	139.02
1.8535	142.74	142.74
1.8535	143.81	143.81
1.8535	147.14	147.14
1.8535	147.51	147.51
1.8535	147.51	147.51
1.8535	147.55	147.55
1.8535	147.64	147.64
1.8535	147.81	147.81
1.8535	148.08	148.08
1.8535	148.54	148.54
1.8535	148.83	148.83
1.8535	149.04	149.04
1.8535	149.33	149.33
1.8535	150.17	150.17
1.8535	150.95	150.95
1.8535	151.67	151.67
1.8535	153.04	153.04
1.8535	153.53	153.53
1.8535	155.10	155.10
1.8535	156.49	156.49
1.8535	158.57	158.57
1.8535	161.04	161.04
1.8535	161.89	161.89
1.8535	164.66	164.66
1.8535	167.23	167.23
1.8535	168.87	168.87
1.8535	169.06	169.06
1.8535	171.61	171.61
1.8535	175.77	175.77
1.8535	177.62	177.62
1.8535	179.36	179.36
1.8535	183.59	183.59
1.8535	185.88	185.88
1.8535	186.53	186.53
1.8850	55.972	55.972
1.8850	64.517	64.517
1.8850	72.681	72.681
1.8850	80.754	80.754
1.8850	89.334	89.334
1.8850	97.682	97.682
1.8850	105.22	105.22
1.8850	112.29	112.29
1.8850	118.35	118.35
1.8850	122.81	122.81
1.8850	124.83	124.83
1.8850	128.19	128.19
1.8850	130.81	130.81
1.8850	132.99	132.99
1.8850	136.59	136.59
1.8850	140.33	140.33
1.8850	141.75	141.75
1.8850	145.19	145.19
1.8850	146.18	146.18
1.8850	149.55	149.55
1.8850	150.01	150.01
1.8850	150.02	150.02
1.8850	150.06	150.06
1.8850	150.18	150.18
1.8850	150.44	150.44
1.8850	150.93	150.93
1.8850	151.40	151.40
1.8850	151.57	151.57
1.8850	151.75	151.75
1.8850	152.47	152.47
1.8850	152.60	152.60
1.8850	153.06	153.06
1.8850	153.82	153.82
1.8850	155.20	155.20
1.8850	156.93	156.93
1.8850	158.57	158.57
1.8850	160.13	160.13
1.8850	160.55	160.55
1.8850	163.34	163.34
1.8850	166.49	166.49
1.8850	168.17	168.17
1.8850	168.87	168.87
1.8850	170.66	170.66
1.8850	173.02	173.02
1.8850	176.74	176.74
1.8850	177.22	177.22
1.8850	180.74	180.74
1.8850	184.95	184.95
1.8850	185.65	185.65
1.8850	187.51	187.51
1.9164	56.904	56.904
1.9164	65.431	65.431
1.9164	73.552	73.552
1.9164	81.638	81.638
1.9164	90.210	90.210
1.9164	98.621	98.621
1.9164	106.22	106.22
1.9164	113.40	113.40
1.9164	119.61	119.61
1.9164	124.35	124.35
1.9164	126.52	126.52
1.9164	129.58	129.58
1.9164	129.87	129.87
1.9164	134.31	134.31
1.9164	138.06	138.06
1.9164	140.76	140.76
1.9164	141.65	141.65
1.9164	145.22	145.22
1.9164	146.55	146.55
1.9164	151.08	151.08
1.9164	151.67	151.67
1.9164	152.51	152.51
1.9164	152.52	152.52
1.9164	152.55	152.55
1.9164	152.66	152.66
1.9164	152.91	152.91
1.9164	153.36	153.36
1.9164	153.96	153.96
1.9164	153.97	153.97
1.9164	154.20	154.20
1.9164	154.55	154.55
1.9164	155.30	155.30
1.9164	156.14	156.14
1.9164	157.33	157.33
1.9164	158.75	158.75
1.9164	159.22	159.22
1.9164	160.74	160.74
1.9164	162.54	162.54
1.9164	164.84	164.84
1.9164	167.27	167.27
1.9164	168.31	168.31
1.9164	170.49	170.49
1.9164	172.48	172.48
1.9164	174.53	174.53
1.9164	175.86	175.86
1.9164	178.64	178.64
1.9164	182.19	182.19
1.9164	184.77	184.77
1.9164	186.27	186.27
1.9164	189.12	189.12
1.9478	57.835	57.835
1.9478	66.347	66.347
1.9478	74.424	74.424
1.9478	82.522	82.522
1.9478	91.085	91.085
1.9478	99.554	99.554
1.9478	107.21	107.21
1.9478	114.49	114.49
1.9478	120.85	120.85
1.9478	125.86	125.86
1.9478	128.23	128.23
1.9478	128.93	128.93
1.9478	131.01	131.01
1.9478	135.62	135.62
1.9478	139.54	139.54
1.9478	139.77	139.77
1.9478	142.98	142.98
1.9478	144.26	144.26
1.9478	147.87	147.87
1.9478	150.74	150.74
1.9478	152.54	152.54
1.9478	155.01	155.01
1.9478	155.02	155.02
1.9478	155.05	155.05
1.9478	155.15	155.15
1.9478	155.36	155.36
1.9478	155.66	155.66
1.9478	156.05	156.05
1.9478	156.54	156.54
1.9478	156.69	156.69
1.9478	156.86	156.86
1.9478	157.68	157.68
1.9478	158.32	158.32
1.9478	158.47	158.47
1.9478	159.37	159.37
1.9478	160.72	160.72
1.9478	162.92	162.92
1.9478	164.49	164.49
1.9478	166.38	166.38
1.9478	166.46	166.46
1.9478	170.05	170.05
1.9478	172.15	172.15
1.9478	174.28	174.28
1.9478	174.98	174.98
1.9478	176.15	176.15
1.9478	180.01	180.01
1.9478	183.69	183.69
1.9478	183.90	183.90
1.9478	187.57	187.57
1.9478	190.72	190.72
1.9792	58.766	58.766
1.9792	67.266	67.266
1.9792	75.296	75.296
1.9792	83.406	83.406
1.9792	91.958	91.958
1.9792	100.48	100.48
1.9792	108.19	108.19
1.9792	115.57	115.57
1.9792	122.06	122.06
1.9792	127.33	127.33
1.9792	127.98	127.98
1.9792	129.96	129.96
1.9792	132.47	132.47
1.9792	136.93	136.93
1.9792	138.78	138.78
1.9792	141.00	141.00
1.9792	143.30	143.30
1.9792	144.33	144.33
1.9792	149.18	149.18
1.9792	149.81	149.81
1.9792	153.95	153.95
1.9792	157.30	157.30
1.9792	157.41	157.41
1.9792	157.51	157.51
1.9792	157.52	157.52
1.9792	157.56	157.56
1.9792	157.67	157.67
1.9792	157.93	157.93
1.9792	158.40	158.40
1.9792	159.12	159.12
1.9792	159.14	159.14
1.9792	159.36	159.36
1.9792	160.03	160.03
1.9792	160.69	160.69
1.9792	161.45	161.45
1.9792	162.88	162.88
1.9792	165.01	165.01
1.9792	165.48	165.48
1.9792	166.40	166.40
1.9792	168.29	168.29
1.9792	171.68	171.68
1.9792	173.90	173.90
1.9792	174.10	174.10
1.9792	176.02	176.02
1.9792	177.90	177.90
1.9792	181.36	181.36
1.9792	183.02	183.02
1.9792	185.23	185.23
1.9792	188.87	188.87
1.9792	191.67	191.67
2.0106	59.698	59.698
2.0106	68.187	68.187
2.0106	76.170	76.170
2.0106	84.290	84.290
2.0106	92.830	92.830
2.0106	101.40	101.40
2.0106	109.17	109.17
2.0106	116.63	116.63
2.0106	123.24	123.24
2.0106	127.04	127.04
2.0106	128.75	128.75
2.0106	131.69	131.69
2.0106	133.98	133.98
2.0106	137.79	137.79
2.0106	138.25	138.25
2.0106	142.34	142.34
2.0106	142.45	142.45
2.0106	145.70	145.70
2.0106	148.89	148.89
2.0106	150.48	150.48
2.0106	155.32	155.32
2.0106	156.50	156.50
2.0106	158.92	158.92
2.0106	160.01	160.01
2.0106	160.02	160.02
2.0106	160.05	160.05
2.0106	160.16	160.16
2.0106	160.40	160.40
2.0106	160.84	160.84
2.0106	161.48	161.48
2.0106	161.70	161.70
2.0106	161.90	161.90
2.0106	162.19	162.19
2.0106	162.94	162.94
2.0106	163.73	163.73
2.0106	164.59	164.59
2.0106	165.11	165.11
2.0106	166.92	166.92
2.0106	168.40	168.40
2.0106	170.28	170.28
2.0106	173.21	173.21
2.0106	173.23	173.23
2.0106	175.72	175.72
2.0106	177.71	177.71
2.0106	179.75	179.75
2.0106	182.14	182.14
2.0106	182.72	182.72
2.0106	186.77	186.77
2.0106	190.21	190.21
2.0106	190.78	190.78
2.0420	60.630	60.630
2.0420	69.111	69.111
2.0420	77.043	77.043
2.0420	85.174	85.174
2.0420	93.700	93.700
2.0420	102.32	102.32
2.0420	110.14	110.14
2.0420	117.68	117.68
2.0420	124.41	124.41
2.0420	126.10	126.10
2.0420	130.14	130.14
2.0420	133.41	133.41
2.0420	135.53	135.53
2.0420	136.80	136.80
2.0420	139.57	139.57
2.0420	141.38	141.38
2.0420	143.88	143.88
2.0420	147.10	147.10
2.0420	147.96	147.96
2.0420	151.76	151.76
2.0420	155.60	155.60
2.0420	156.66	156.66
2.0420	160.47	160.47
2.0420	162.51	162.51
2.0420	162.52	162.52
2.0420	162.55	162.55
2.0420	162.65	162.65
2.0420	162.86	162.86
2.0420	163.18	163.18
2.0420	163.62	163.62
2.0420	163.70	163.70
2.0420	164.28	164.28
2.0420	164.33	164.33
2.0420	164.52	164.52
2.0420	165.32	165.32
2.0420	166.11	166.11
2.0420	167.31	167.31
2.0420	168.73	168.73
2.0420	170.53	170.53
2.0420	172.34	172.34
2.0420	172.35	172.35
2.0420	174.70	174.70
2.0420	177.56	177.56
2.0420	179.40	179.40
2.0420	181.26	181.26
2.0420	181.65	181.65
2.0420	184.14	184.14
2.0420	188.28	188.28
2.0420	189.90	189.90
2.0420	191.60	191.60
2.0735	61.562	61.562
2.0735	70.037	70.037
2.0735	77.918	77.918
2.0735	86.057	86.057
2.0735	94.569	94.569
2.0735	103.23	103.23
2.0735	111.10	111.10
2.0735	118.71	118.71
2.0735	125.16	125.16
2.0735	125.55	125.55
2.0735	131.49	131.49
2.0735	135.10	135.10
2.0735	135.81	135.81
2.0735	137.14	137.14
2.0735	140.43	140.43
2.0735	140.91	140.91
2.0735	145.29	145.29
2.0735	147.04	147.04
2.0735	148.53	148.53
2.0735	153.04	153.04
2.0735	154.69	154.69
2.0735	157.98	157.98
2.0735	161.98	161.98
2.0735	162.80	162.80
2.0735	164.91	164.91
2.0735	165.01	165.01
2.0735	165.02	165.02
2.0735	165.06	165.06
2.0735	165.18	165.18
2.0735	165.43	165.43
2.0735	165.92	165.92
2.0735	166.71	166.71
2.0735	166.86	166.86
2.0735	167.07	167.07
2.0735	167.73	167.73
2.0735	168.48	168.48
2.0735	169.39	169.39
2.0735	170.66	170.66
2.0735	171.47	171.47
2.0735	172.72	172.72
2.0735	174.38	174.38
2.0735	176.27	176.27
2.0735	179.35	179.35
2.0735	180.38	180.38
2.0735	181.15	181.15
2.0735	183.51	183.51
2.0735	185.66	185.66
2.0735	189.01	189.01
2.0735	189.74	189.74
2.0735	193.08	193.08
2.1049	62.494	62.494
2.1049	70.965	70.965
2.1049	78.794	78.794
2.1049	86.940	86.940
2.1049	95.438	95.438
2.1049	104.14	104.14
2.1049	112.05	112.05
2.1049	119.74	119.74
2.1049	124.22	124.22
2.1049	126.68	126.68
2.1049	132.80	132.80
2.1049	134.82	134.82
2.1049	136.76	136.76
2.1049	138.79	138.79
2.1049	139.47	139.47
2.1049	142.27	142.27
2.1049	146.12	146.12
2.1049	146.68	146.68
2.1049	149.98	149.98
2.1049	153.79	153.79
2.1049	154.32	154.32
2.1049	159.27	159.27
2.1049	161.91	161.91
2.1049	163.46	163.46
2.1049	166.58	166.58
2.1049	167.51	167.51
2.1049	167.52	167.52
2.1049	167.55	167.55
2.1049	167.66	167.66
2.1049	167.90	167.90
2.1049	168.35	168.35
2.1049	169.11	169.11
2.1049	169.45	169.45
2.1049	169.64	169.64
2.1049	170.07	170.07
2.1049	170.60	170.60
2.1049	170.76	170.76
2.1049	171.46	171.46
2.1049	172.81	172.81
2.1049	174.89	174.89
2.1049	176.34	176.34
2.1049	178.02	178.02
2.1049	179.51	179.51
2.1049	181.05	181.05
2.1049	182.96	182.96
2.1049	185.29	185.29
2.1049	187.34	187.34
2.1049	188.13	188.13
2.1049	191.15	191.15
2.1049	194.62	194.62
2.1363	63.426	63.426
2.1363	71.895	71.895
2.1363	79.671	79.671
2.1363	87.823	87.823
2.1363	96.306	96.306
2.1363	105.04	105.04
2.1363	113.00	113.00
2.1363	120.75	120.75
2.1363	123.28	123.28
2.1363	127.79	127.79
2.1363	133.83	133.83
2.1363	134.07	134.07
2.1363	138.38	138.38
2.1363	138.52	138.52
2.1363	140.48	140.48
2.1363	143.65	143.65
2.1363	145.19	145.19
2.1363	148.04	148.04
2.1363	151.46	151.46
2.1363	152.89	152.89
2.1363	155.61	155.61
2.1363	160.55	160.55
2.1363	161.02	161.02
2.1363	164.90	164.90
2.1363	168.15	168.15
2.1363	169.73	169.73
2.1363	170.01	170.01
2.1363	170.02	170.02
2.1363	170.05	170.05
2.1363	170.15	170.15
2.1363	170.38	170.38
2.1363	170.80	170.80
2.1363	171.44	171.44
2.1363	172.03	172.03
2.1363	172.13	172.13
2.1363	172.26	172.26
2.1363	173.03	173.03
2.1363	173.75	173.75
2.1363	175.07	175.07
2.1363	176.91	176.91
2.1363	178.28	178.28
2.1363	178.63	178.63
2.1363	179.99	179.99
2.1363	182.68	182.68
2.1363	184.82	184.82
2.1363	186.99	186.99
2.1363	187.24	187.24
2.1363	189.17	189.17
2.1363	192.52	192.52
2.1363	196.04	196.04
2.1677	64.358	64.358
2.1677	72.827	72.827
2.1677	80.549	80.549
2.1677	88.706	88.706
2.1677	97.174	97.174
2.1677	105.94	105.94
2.1677	113.95	113.95
2.1677	121.75	121.75
2.1677	122.34	122.34
2.1677	128.88	128.88
2.1677	132.84	132.84
2.1677	135.31	135.31
2.1677	137.56	137.56
2.1677	139.96	139.96
2.1677	142.20	142.20
2.1677	144.27	144.27
2.1677	145.06	145.06
2.1677	149.40	149.40
2.1677	151.98	151.98
2.1677	152.96	152.96
2.1677	156.92	156.92
2.1677	160.13	160.13
2.1677	161.82	161.82
2.1677	166.32	166.32
2.1677	168.85	168.85
2.1677	169.68	169.68
2.1677	172.51	172.51
2.1677	172.52	172.52
2.1677	172.55	172.55
2.1677	172.64	172.64
2.1677	172.83	172.83
2.1677	173.13	173.13
2.1677	173.56	173.56
2.1677	174.33	174.33
2.1677	174.63	174.63
2.1677	174.82	174.82
2.1677	175.42	175.42
2.1677	176.16	176.16
2.1677	177.33	177.33
2.1677	177.75	177.75
2.1677	178.76	178.76
2.1677	180.35	180.35
2.1677	182.08	182.08
2.1677	184.27	184.27
2.1677	186.36	186.36
2.1677	186.68	186.68
2.1677	188.68	188.68
2.1677	191.09	191.09
2.1677	193.90	193.90
2.1677	195.16	195.16
2.1991	65.291	65.291
2.1991	73.762	73.762
2.1991	81.429	81.429
2.1991	89.589	89.589
2.1991	98.041	98.041
2.1991	106.84	106.84
2.1991	114.88	114.88
2.1991	121.40	121.40
2.1991	122.75	122.75
2.1991	129.96	129.96
2.1991	131.86	131.86
2.1991	136.52	136.52
2.1991	136.61	136.61
2.1991	141.50	141.50
2.1991	143.35	143.35
2.1991	143.95	143.95
2.1991	146.50	146.50
2.1991	150.74	150.74
2.1991	151.08	151.08
2.1991	154.46	154.46
2.1991	158.24	158.24
2.1991	159.24	159.24
2.1991	163.08	163.08
2.1991	167.70	167.70
2.1991	167.98	167.98
2.1991	171.20	171.20
2.1991	174.78	174.78
2.1991	175.01	175.01
2.1991	175.02	175.02
2.1991	175.06	175.06
2.1991	175.17	175.17
2.1991	175.41	175.41
2.1991	175.88	175.88
2.1991	176.69	176.69
2.1991	176.87	176.87
2.1991	177.22	177.22
2.1991	177.40	177.40
2.1991	177.82	177.82
2.1991	178.59	178.59
2.1991	179.47	179.47
2.1991	180.65	180.65
2.1991	182.54	182.54
2.1991	184.19	184.19
2.1991	185.48	185.48
2.1991	185.91	185.91
2.1991	188.48	188.48
2.1991	190.42	190.42
2.1991	193.02	193.02
2.1991	194.28	194.28
2.1991	195.36	195.36
2.2305	66.223	66.223
2.2305	74.698	74.698
2.2305	82.309	82.309
2.2305	90.472	90.472
2.2305	98.909	98.909
2.2305	107.73	107.73
2.2305	115.82	115.82
2.2305	120.47	120.47
2.2305	123.73	123.73
2.2305	130.87	130.87
2.2305	131.03	131.03
2.2305	135.66	135.66
2.2305	137.71	137.71
2.2305	142.43	142.43
2.2305	142.99	142.99
2.2305	145.70	145.70
2.2305	147.99	147.99
2.2305	150.18	150.18
2.2305	152.08	152.08
2.2305	155.96	155.96
2.2305	158.36	158.36
2.2305	159.58	159.58
2.2305	164.33	164.33
2.2305	167.11	167.11
2.2305	169.06	169.06
2.2305	172.69	172.69
2.2305	175.99	175.99
2.2305	176.36	176.36
2.2305	177.51	177.51
2.2305	177.52	177.52
2.2305	177.56	177.56
2.2305	177.66	177.66
2.2305	177.88	177.88
2.2305	178.33	178.33
2.2305	179.09	179.09
2.2305	179.81	179.81
2.2305	179.98	179.98
2.2305	180.15	180.15
2.2305	180.92	180.92
2.2305	181.52	181.52
2.2305	182.78	182.78
2.2305	184.59	184.59
2.2305	184.73	184.73
2.2305	186.22	186.22
2.2305	187.69	187.69
2.2305	190.19	190.19
2.2305	192.24	192.24
2.2305	193.39	193.39
2.2305	194.87	194.87
2.2305	196.95	196.95
2.2619	67.156	67.156
2.2619	75.636	75.636
2.2619	83.191	83.191
2.2619	91.355	91.355
2.2619	99.777	99.777
2.2619	108.62	108.62
2.2619	116.75	116.75
2.2619	119.53	119.53
2.2619	124.71	124.71
2.2619	129.88	129.88
2.2619	132.09	132.09
2.2619	134.70	134.70
2.2619	138.87	138.87
2.2619	141.51	141.51
2.2619	144.43	144.43
2.2619	147.46	147.46
2.2619	149.28	149.28
2.2619	149.52	149.52
2.2619	153.41	153.41
2.2619	157.45	157.45
2.2619	157.47	157.47
2.2619	160.95	160.95
2.2619	165.59	165.59
2.2619	166.23	166.23
2.2619	170.38	170.38
2.2619	174.18	174.18
2.2619	175.11	175.11
2.2619	177.85	177.85
2.2619	180.01	180.01
2.2619	180.02	180.02
2.2619	180.05	180.05
2.2619	180.15	180.15
2.2619	180.36	180.36
2.2619	180.78	180.78
2.2619	181.44	181.44
2.2619	182.21	182.21
2.2619	182.41	182.41
2.2619	182.60	182.60
2.2619	183.16	183.16
2.2619	183.71	183.71
2.2619	183.83	183.83
2.2619	185.06	185.06
2.2619	186.84	186.84
2.2619	188.17	188.17
2.2619	189.68	189.68
2.2619	191.85	191.85
2.2619	192.50	192.50
2.2619	194.12	194.12
2.2619	196.61	196.61
2.2619	198.73	198.73
2.2934	68.089	68.089
2.2934	76.575	76.575
2.2934	84.074	84.074
2.2934	92.238	92.238
2.2934	100.64	100.64
2.2934	109.51	109.51
2.2934	117.68	117.68
2.2934	118.59	118.59
2.2934	125.67	125.67
2.2934	128.89	128.89
2.2934	133.14	133.14
2.2934	133.75	133.75
2.2934	140.02	140.02
2.2934	140.60	140.60
2.2934	145.83	145.83
2.2934	148.38	148.38
2.2934	149.20	149.20
2.2934	151.10	151.10
2.2934	154.76	154.76
2.2934	156.58	156.58
2.2934	158.93	158.93
2.2934	162.36	162.36
2.2934	165.36	165.36
2.2934	166.84	166.84
2.2934	171.69	171.69
2.2934	174.23	174.23
2.2934	175.66	175.66
2.2934	179.30	179.30
2.2934	182.51	182.51
2.2934	182.52	182.52
2.2934	182.55	182.55
2.2934	182.64	182.64
2.2934	182.83	182.83
2.2934	182.83	182.83
2.2934	183.13	183.13
2.2934	183.57	183.57
2.2934	184.32	184.32
2.2934	185.02	185.02
2.2934	185.18	185.18
2.2934	185.50	185.50
2.2934	186.29	186.29
2.2934	187.37	187.37
2.2934	188.78	188.78
2.2934	190.21	190.21
2.2934	191.62	191.62
2.2934	191.80	191.80
2.2934	193.51	193.51
2.2934	195.98	195.98
2.2934	198.28	198.28
2.2934	200.15	200.15
2.3248	69.022	69.022
2.3248	77.517	77.517
2.3248	84.959	84.959
2.3248	93.121	93.121
2.3248	101.51	101.51
2.3248	110.39	110.39
2.3248	117.65	117.65
2.3248	118.60	118.60
2.3248	126.63	126.63
2.3248	127.91	127.91
2.3248	132.80	132.80
2.3248	134.17	134.17
2.3248	139.68	139.68
2.3248	141.14	141.14
2.3248	147.18	147.18
2.3248	147.48	147.48
2.3248	150.92	150.92
2.3248	152.74	152.74
2.3248	155.70	155.70
2.3248	156.11	156.11
2.3248	160.39	160.39
2.3248	163.79	163.79
2.3248	164.49	164.49
2.3248	168.10	168.10
2.3248	172.98	172.98
2.3248	173.35	173.35
2.3248	177.12	177.12
2.3248	180.72	180.72
2.3248	181.94	181.94
2.3248	184.80	184.80
2.3248	185.01	185.01
2.3248	185.02	185.02
2.3248	185.06	185.06
2.3248	185.17	185.17
2.3248	185.40	185.40
2.3248	185.86	185.86
2.3248	186.66	186.66
2.3248	187.62	187.62
2.3248	187.76	187.76
2.3248	187.90	187.90
2.3248	188.77	188.77
2.3248	189.56	189.56
2.3248	190.69	190.69
2.3248	190.73	190.73
2.3248	192.37	192.37
2.3248	193.93	193.93
2.3248	195.24	195.24
2.3248	197.77	197.77
2.3248	199.24	199.24
2.3248	200.00	200.00
2.3562	69.954	69.954
2.3562	78.460	78.460
2.3562	85.845	85.845
2.3562	94.004	94.004
2.3562	102.38	102.38
2.3562	111.27	111.27
2.3562	116.71	116.71
2.3562	119.52	119.52
2.3562	126.92	126.92
2.3562	127.59	127.59
2.3562	131.86	131.86
2.3562	135.20	135.20
2.3562	138.76	138.76
2.3562	142.25	142.25
2.3562	146.58	146.58
2.3562	148.49	148.49
2.3562	152.60	152.60
2.3562	154.42	154.42
2.3562	154.81	154.81
2.3562	157.49	157.49
2.3562	161.83	161.83
2.3562	163.62	163.62
2.3562	165.26	165.26
2.3562	169.37	169.37
2.3562	172.47	172.47
2.3562	174.26	174.26
2.3562	178.58	178.58
2.3562	181.06	181.06
2.3562	182.13	182.13
2.3562	186.35	186.35
2.3562	187.52	187.52
2.3562	187.52	187.52
2.3562	187.56	187.56
2.3562	187.65	187.65
2.3562	187.87	187.87
2.3562	188.31	188.31
2.3562	189.07	189.07
2.3562	189.84	189.84
2.3562	190.17	190.17
2.3562	190.23	190.23
2.3562	190.41	190.41
2.3562	191.15	191.15
2.3562	191.65	191.65
2.3562	192.80	192.80
2.3562	194.58	194.58
2.3562	195.94	195.94
2.3562	197.14	197.14
2.3562	198.33	198.33
2.3562	199.46	199.46
2.3562	201.82	201.82
2.3876	70.887	70.887
2.3876	79.405	79.405
2.3876	86.732	86.732
2.3876	94.887	94.887
2.3876	103.25	103.25
2.3876	112.15	112.15
2.3876	115.77	115.77
2.3876	120.44	120.44
2.3876	125.94	125.94
2.3876	128.54	128.54
2.3876	130.91	130.91
2.3876	136.22	136.22
2.3876	137.85	137.85
2.3876	143.34	143.34
2.3876	145.68	145.68
2.3876	149.75	149.75
2.3876	153.93	153.93
2.3876	154.24	154.24
2.3876	156.14	156.14
2.3876	158.89	158.89
2.3876	162.75	162.75
2.3876	163.25	163.25
2.3876	166.76	166.76
2.3876	170.65	170.65
2.3876	171.59	171.59
2.3876	175.52	175.52
2.3876	180.01	180.01
2.3876	180.18	180.18
2.3876	183.53	183.53
2.3876	187.80	187.80
2.3876	188.95	188.95
2.3876	190.02	190.02
2.3876	190.02	190.02
2.3876	190.06	190.06
2.3876	190.15	190.15
2.3876	190.36	190.36
2.3876	190.76	190.76
2.3876	191.45	191.45
2.3876	192.30	192.30
2.3876	192.84	192.84
2.3876	193.00	193.00
2.3876	193.28	193.28
2.3876	194.02	194.02
2.3876	195.09	195.09
2.3876	196.71	196.71
2.3876	197.42	197.42
2.3876	197.87	197.87
2.3876	199.24	199.24
2.3876	201.10	201.10
2.3876	203.72	203.72
2.4190	71.820	71.820
2.4190	80.351	80.351
2.4190	87.621	87.621
2.4190	95.770	95.770
2.4190	104.12	104.12
2.4190	113.03	113.03
2.4190	114.83	114.83
2.4190	121.35	121.35
2.4190	124.95	124.95
2.4190	129.48	129.48
2.4190	129.96	129.96
2.4190	136.94	136.94
2.4190	137.22	137.22
2.4190	144.42	144.42
2.4190	144.78	144.78
2.4190	150.99	150.99
2.4190	153.04	153.04
2.4190	155.83	155.83
2.4190	157.90	157.90
2.4190	160.32	160.32
2.4190	161.88	161.88
2.4190	164.65	164.65
2.4190	168.27	168.27
2.4190	170.71	170.71
2.4190	171.94	171.94
2.4190	176.78	176.78
2.4190	179.29	179.29
2.4190	181.42	181.42
2.4190	184.92	184.92
2.4190	188.06	188.06
2.4190	189.21	189.21
2.4190	192.52	192.52
2.4190	192.53	192.53
2.4190	192.56	192.56
2.4190	192.64	192.64
2.4190	192.83	192.83
2.4190	193.17	193.17
2.4190	193.64	193.64
2.4190	194.33	194.33
2.4190	195.45	195.45
2.4190	195.50	195.50
2.4190	195.64	195.64
2.4190	196.51	196.51
2.4190	196.53	196.53
2.4190	197.40	197.40
2.4190	198.68	198.68
2.4190	199.92	199.92
2.4190	201.37	201.37
2.4190	202.80	202.80
2.4190	204.92	204.92
2.4504	72.754	72.754
2.4504	81.299	81.299
2.4504	88.511	88.511
2.4504	96.653	96.653
2.4504	104.99	104.99
2.4504	113.90	113.90
2.4504	113.90	113.90
2.4504	122.27	122.27
2.4504	123.97	123.97
2.4504	129.01	129.01
2.4504	130.42	130.42
2.4504	136.02	136.02
2.4504	138.23	138.23
2.4504	143.89	143.89
2.4504	145.48	145.48
2.4504	152.16	152.16
2.4504	152.19	152.19
2.4504	157.36	157.36
2.4504	159.67	159.67
2.4504	161.01	161.01
2.4504	161.79	161.79
2.4504	166.04	166.04
2.4504	169.80	169.80
2.4504	169.83	169.83
2.4504	173.25	173.25
2.4504	178.04	178.04
2.4504	178.41	178.41
2.4504	182.82	182.82
2.4504	186.33	186.33
2.4504	187.17	187.17
2.4504	190.59	190.59
2.4504	194.97	194.97
2.4504	195.02	195.02
2.4504	195.03	195.03
2.4504	195.07	195.07
2.4504	195.18	195.18
2.4504	195.41	195.41
2.4504	195.60	195.60
2.4504	195.85	195.85
2.4504	196.64	196.64
2.4504	197.86	197.86
2.4504	198.07	198.07
2.4504	198.24	198.24
2.4504	199.03	199.03
2.4504	199.61	199.61
2.4504	200.62	200.62
2.4504	202.08	202.08
2.4504	203.39	203.39
2.4504	203.99	203.99
2.4504	204.68	204.68
2.4819	73.687	73.687
2.4819	82.248	82.248
2.4819	89.402	89.402
2.4819	97.536	97.536
2.4819	105.86	105.86
2.4819	112.96	112.96
2.4819	114.77	114.77
2.4819	122.99	122.99
2.4819	123.18	123.18
2.4819	128.07	128.07
2.4819	131.35	131.35
2.4819	135.11	135.11
2.4819	139.22	139.22
2.4819	142.99	142.99
2.4819	146.54	146.54
2.4819	151.28	151.28
2.4819	153.37	153.37
2.4819	158.84	158.84
2.4819	160.15	160.15
2.4819	161.46	161.46
2.4819	163.31	163.31
2.4819	167.43	167.43
2.4819	168.95	168.95
2.4819	171.34	171.34
2.4819	174.59	174.59
2.4819	177.53	177.53
2.4819	179.30	179.30
2.4819	184.18	184.18
2.4819	186.28	186.28
2.4819	187.74	187.74
2.4819	191.94	191.94
2.4819	194.68	194.68
2.4819	196.57	196.57
2.4819	197.52	197.52
2.4819	197.53	197.53
2.4819	197.56	197.56
2.4819	197.65	197.65
2.4819	197.86	197.86
2.4819	198.29	198.29
2.4819	199.04	199.04
2.4819	200.19	200.19
2.4819	200.69	200.69
2.4819	200.85	200.85
2.4819	201.31	201.31
2.4819	201.82	201.82
2.4819	202.75	202.75
2.4819	203.06	203.06
2.4819	204.22	204.22
2.4819	205.33	205.33
2.4819	206.78	206.78
2.5133	74.620	74.620
2.5133	83.199	83.199
2.5133	90.295	90.295
2.5133	98.420	98.420
2.5133	106.73	106.73
2.5133	112.02	112.02
2.5133	115.65	115.65
2.5133	122.00	122.00
2.5133	124.09	124.09
2.5133	127.12	127.12
2.5133	132.28	132.28
2.5133	134.20	134.20
2.5133	140.20	140.20
2.5133	142.09	142.09
2.5133	147.58	147.58
2.5133	150.40	150.40
2.5133	154.52	154.52
2.5133	159.28	159.28
2.5133	160.26	160.26
2.5133	163.24	163.24
2.5133	164.87	164.87
2.5133	168.07	168.07
2.5133	168.80	168.80
2.5133	172.86	172.86
2.5133	175.96	175.96
2.5133	176.65	176.65
2.5133	180.56	180.56
2.5133	185.38	185.38
2.5133	185.53	185.53
2.5133	189.17	189.17
2.5133	193.26	193.26
2.5133	193.77	193.77
2.5133	198.01	198.01
2.5133	200.02	200.02
2.5133	200.03	200.03
2.5133	200.06	200.06
2.5133	200.15	200.15
2.5133	200.35	200.35
2.5133	200.75	200.75
2.5133	201.45	201.45
2.5133	202.13	202.13
2.5133	202.36	202.36
2.5133	203.28	203.28
2.5133	203.31	203.31
2.5133	203.48	203.48
2.5133	204.29	204.29
2.5133	205.01	205.01
2.5133	206.18	206.18
2.5133	207.39	207.39
2.5133	208.99	208.99
2.5447	75.553	75.553
2.5447	84.151	84.151
2.5447	91.190	91.190
2.5447	99.303	99.303
2.5447	107.60	107.60
2.5447	111.08	111.08
2.5447	116.52	116.52
2.5447	121.02	121.02
2.5447	124.99	124.99
2.5447	126.18	126.18
2.5447	133.20	133.20
2.5447	133.29	133.29
2.5447	141.18	141.18
2.5447	141.20	141.20
2.5447	148.62	148.62
2.5447	149.52	149.52
2.5447	155.66	155.66
2.5447	158.41	158.41
2.5447	161.63	161.63
2.5447	165.00	165.00
2.5447	166.50	166.50
2.5447	167.18	167.18
2.5447	170.18	170.18
2.5447	174.38	174.38
2.5447	175.76	175.76
2.5447	177.37	177.37
2.5447	181.82	181.82
2.5447	184.49	184.49
2.5447	186.85	186.85
2.5447	190.61	190.61
2.5447	192.85	192.85
2.5447	194.57	194.57
2.5447	199.41	199.41
2.5447	201.20	201.20
2.5447	202.52	202.52
2.5447	202.53	202.53
2.5447	202.56	202.56
2.5447	202.64	202.64
2.5447	202.83	202.83
2.5447	203.19	203.19
2.5447	203.71	203.71
2.5447	204.35	204.35
2.5447	205.48	205.48
2.5447	205.94	205.94
2.5447	206.09	206.09
2.5447	206.77	206.77
2.5447	207.24	207.24
2.5447	208.11	208.11
2.5447	209.27	209.27
2.5447	209.61	209.61
2.5761	76.487	76.487
2.5761	85.104	85.104
2.5761	92.086	92.086
2.5761	100.19	100.19
2.5761	108.47	108.47
2.5761	110.15	110.15
2.5761	117.39	117.39
2.5761	120.04	120.04
2.5761	125.24	125.24
2.5761	125.89	125.89
2.5761	132.38	132.38
2.5761	134.12	134.12
2.5761	140.30	140.30
2.5761	142.16	142.16
2.5761	148.64	148.64
2.5761	149.64	149.64
2.5761	156.78	156.78
2.5761	157.54	157.54
2.5761	162.95	162.95
2.5761	166.30	166.30
2.5761	166.74	166.74
2.5761	168.17	168.17
2.5761	171.57	171.57
2.5761	174.88	174.88
2.5761	175.87	175.87
2.5761	178.81	178.81
2.5761	183.10	183.10
2.5761	183.59	183.59
2.5761	188.16	188.16
2.5761	191.94	191.94
2.5761	192.06	192.06
2.5761	195.88	195.88
2.5761	200.27	200.27
2.5761	200.79	200.79
2.5761	205.02	205.02
2.5761	205.03	205.03
2.5761	205.05	205.05
2.5761	205.11	205.11
2.5761	205.22	205.22
2.5761	205.43	205.43
2.5761	205.85	205.85
2.5761	206.60	206.60
2.5761	207.78	207.78
2.5761	208.30	208.30
2.5761	208.56	208.56
2.5761	208.71	208.71
2.5761	208.93	208.93
2.5761	209.55	209.55
2.5761	210.26	210.26
2.5761	211.85	211.85
2.6075	77.420	77.420
2.6075	86.059	86.059
2.6075	92.983	92.983
2.6075	101.07	101.07
2.6075	109.21	109.21
2.6075	109.35	109.35
2.6075	118.25	118.25
2.6075	119.05	119.05
2.6075	124.30	124.30
2.6075	126.80	126.80
2.6075	131.47	131.47
2.6075	135.04	135.04
2.6075	139.41	139.41
2.6075	143.12	143.12
2.6075	147.76	147.76
2.6075	150.66	150.66
2.6075	156.67	156.67
2.6075	157.88	157.88
2.6075	164.23	164.23
2.6075	165.42	165.42
2.6075	168.43	168.43
2.6075	169.90	169.90
2.6075	172.98	172.98
2.6075	174.00	174.00
2.6075	177.34	177.34
2.6075	180.29	180.29
2.6075	182.69	182.69
2.6075	184.38	184.38
2.6075	189.45	189.45
2.6075	191.02	191.02
2.6075	193.51	193.51
2.6075	197.18	197.18
2.6075	199.33	199.33
2.6075	202.13	202.13
2.6075	206.82	206.82
2.6075	207.33	207.33
2.6075	207.53	207.53
2.6075	207.53	207.53
2.6075	207.56	207.56
2.6075	207.65	207.65
2.6075	207.86	207.86
2.6075	208.26	208.26
2.6075	208.99	208.99
2.6075	210.00	210.00
2.6075	210.81	210.81
2.6075	211.20	211.20
2.6075	211.35	211.35
2.6075	212.03	212.03
2.6075	212.57	212.57
2.6075	213.98	213.98
2.6389	78.354	78.354
2.6389	87.015	87.015
2.6389	93.882	93.882
2.6389	101.96	101.96
2.6389	108.27	108.27
2.6389	110.22	110.22
2.6389	118.07	118.07
2.6389	119.12	119.12
2.6389	123.36	123.36
2.6389	127.70	127.70
2.6389	130.57	130.57
2.6389	135.95	135.95
2.6389	138.51	138.51
2.6389	144.08	144.08
2.6389	146.88	146.88
2.6389	151.67	151.67
2.6389	155.80	155.80
2.6389	158.96	158.96
2.6389	164.53	164.53
2.6389	165.47	165.47
2.6389	170.08	170.08
2.6389	171.67	171.67
2.6389	173.12	173.12
2.6389	174.41	174.41
2.6389	178.79	178.79
2.6389	181.79	181.79
2.6389	181.81	181.81
2.6389	185.67	185.67
2.6389	190.10	190.10
2.6389	190.73	190.73
2.6389	194.96	194.96
2.6389	198.39	198.39
2.6389	198.49	198.49
2.6389	203.46	203.46
2.6389	206.36	206.36
2.6389	208.28	208.28
2.6389	210.03	210.03
2.6389	210.03	210.03
2.6389	210.06	210.06
2.6389	210.15	210.15
2.6389	210.34	210.34
2.6389	210.72	210.72
2.6389	211.35	211.35
2.6389	211.97	211.97
2.6389	212.93	212.93
2.6389	213.83	213.83
2.6389	213.98	213.98
2.6389	214.17	214.17
2.6389	214.43	214.43
2.6389	214.94	214.94
2.6704	79.287	79.287
2.6704	87.972	87.972
2.6704	94.783	94.783
2.6704	102.84	102.84
2.6704	107.34	107.34
2.6704	111.10	111.10
2.6704	117.09	117.09
2.6704	119.99	119.99
2.6704	122.42	122.42
2.6704	128.59	128.59
2.6704	129.66	129.66
2.6704	136.86	136.86
2.6704	137.62	137.62
2.6704	145.04	145.04
2.6704	146.01	146.01
2.6704	152.68	152.68
2.6704	154.94	154.94
2.6704	160.04	160.04
2.6704	163.65	163.65
2.6704	166.68	166.68
2.6704	171.67	171.67
2.6704	172.23	172.23
2.6704	173.46	173.46
2.6704	175.87	175.87
2.6704	180.21	180.21
2.6704	180.89	180.89
2.6704	183.35	183.35
2.6704	186.98	186.98
2.6704	189.18	189.18
2.6704	192.00	192.00
2.6704	196.39	196.39
2.6704	197.45	197.45
2.6704	199.81	199.81
2.6704	204.76	204.76
2.6704	205.38	205.38
2.6704	209.68	209.68
2.6704	212.53	212.53
2.6704	212.54	212.54
2.6704	212.56	212.56
2.6704	212.64	212.64
2.6704	212.82	212.82
2.6704	213.11	213.11
2.6704	213.17	213.17
2.6704	213.44	213.44
2.6704	214.08	214.08
2.6704	215.23	215.23
2.6704	216.47	216.47
2.6704	216.54	216.54
2.6704	216.63	216.63
2.6704	217.39	217.39
2.7018	80.221	80.221
2.7018	88.930	88.930
2.7018	95.685	95.685
2.7018	103.73	103.73
2.7018	106.40	106.40
2.7018	111.97	111.97
2.7018	116.11	116.11
2.7018	120.85	120.85
2.7018	121.48	121.48
2.7018	128.75	128.75
2.7018	129.49	129.49
2.7018	136.73	136.73
2.7018	137.77	137.77
2.7018	145.13	145.13
2.7018	145.99	145.99
2.7018	153.67	153.67
2.7018	154.07	154.07
2.7018	161.10	161.10
2.7018	162.76	162.76
2.7018	167.86	167.86
2.7018	171.35	171.35
2.7018	173.20	173.20
2.7018	175.27	175.27
2.7018	177.37	177.37
2.7018	179.98	179.98
2.7018	181.62	181.62
2.7018	184.91	184.91
2.7018	188.25	188.25
2.7018	188.32	188.32
2.7018	193.28	193.28
2.7018	196.50	196.50
2.7018	197.81	197.81
2.7018	201.15	201.15
2.7018	204.40	204.40
2.7018	206.05	206.05
2.7018	211.06	211.06
2.7018	212.15	212.15
2.7018	214.83	214.83
2.7018	215.03	215.03
2.7018	215.04	215.04
2.7018	215.07	215.07
2.7018	215.16	215.16
2.7018	215.36	215.36
2.7018	215.75	215.75
2.7018	216.45	216.45
2.7018	217.48	217.48
2.7018	218.47	218.47
2.7018	219.11	219.11
2.7018	219.26	219.26
2.7018	219.52	219.52
2.7332	81.155	81.155
2.7332	89.889	89.889
2.7332	96.588	96.588
2.7332	104.61	104.61
2.7332	105.46	105.46
2.7332	112.85	112.85
2.7332	115.13	115.13
2.7332	120.54	120.54
2.7332	121.72	121.72
2.7332	127.85	127.85
2.7332	130.38	130.38
2.7332	135.84	135.84
2.7332	138.68	138.68
2.7332	144.26	144.26
2.7332	146.94	146.94
2.7332	153.20	153.20
2.7332	154.66	154.66
2.7332	161.88	161.88
2.7332	162.15	162.15
2.7332	169.02	169.02
2.7332	170.46	170.46
2.7332	174.67	174.67
2.7332	177.09	177.09
2.7332	178.93	178.93
2.7332	179.08	179.08
2.7332	183.01	183.01
2.7332	186.48	186.48
2.7332	187.33	187.33
2.7332	189.67	189.67
2.7332	194.55	194.55
2.7332	195.55	195.55
2.7332	199.21	199.21
2.7332	202.51	202.51
2.7332	203.42	203.42
2.7332	207.33	207.33
2.7332	211.13	211.13
2.7332	212.41	212.41
2.7332	216.40	216.40
2.7332	217.53	217.53
2.7332	217.54	217.54
2.7332	217.57	217.57
2.7332	217.65	217.65
2.7332	217.84	217.84
2.7332	218.21	218.21
2.7332	218.43	218.43
2.7332	218.82	218.82
2.7332	219.52	219.52
2.7332	220.53	220.53
2.7332	221.76	221.76
2.7332	221.90	221.90
2.7646	82.089	82.089
2.7646	90.849	90.849
2.7646	97.493	97.493
2.7646	104.53	104.53
2.7646	105.50	105.50
2.7646	113.72	113.72
2.7646	114.15	114.15
2.7646	119.61	119.61
2.7646	122.58	122.58
2.7646	126.95	126.95
2.7646	131.28	131.28
2.7646	134.95	134.95
2.7646	139.58	139.58
2.7646	143.38	143.38
2.7646	147.88	147.88
2.7646	152.33	152.33
2.7646	155.65	155.65
2.7646	160.99	160.99
2.7646	163.19	163.19
2.7646	169.58	169.58
2.7646	170.16	170.16
2.7646	176.08	176.08
2.7646	178.17	178.17
2.7646	178.90	178.90
2.7646	180.54	180.54
2.7646	184.40	184.40
2.7646	186.41	186.41
2.7646	188.05	188.05
2.7646	191.06	191.06
2.7646	194.60	194.60
2.7646	195.83	195.83
2.7646	200.59	200.59
2.7646	202.44	202.44
2.7646	203.90	203.90
2.7646	208.59	208.59
2.7646	210.10	210.10
2.7646	213.73	213.73
2.7646	217.33	217.33
2.7646	217.91	217.91
2.7646	220.03	220.03
2.7646	220.04	220.04
2.7646	220.07	220.07
2.7646	220.15	220.15
2.7646	220.31	220.31
2.7646	220.60	220.60
2.7646	220.96	220.96
2.7646	221.61	221.61
2.7646	222.81	222.81
2.7646	223.64	223.64
2.7646	224.41	224.41
2.7960	83.023	83.023
2.7960	91.811	91.811
2.7960	98.399	98.399
2.7960	103.59	103.59
2.7960	106.38	106.38
2.7960	113.17	113.17
2.7960	114.60	114.60
2.7960	118.67	118.67
2.7960	123.44	123.44
2.7960	126.04	126.04
2.7960	132.17	132.17
2.7960	134.05	134.05
2.7960	140.49	140.49
2.7960	142.51	142.51
2.7960	148.81	148.81
2.7960	151.46	151.46
2.7960	156.63	156.63
2.7960	160.11	160.11
2.7960	164.22	164.22
2.7960	168.69	168.69
2.7960	171.28	171.28
2.7960	177.26	177.26
2.7960	177.44	177.44
2.7960	180.68	180.68
2.7960	182.20	182.20
2.7960	185.48	185.48
2.7960	185.79	185.79
2.7960	189.61	189.61
2.7960	192.48	192.48
2.7960	193.65	193.65
2.7960	197.11	197.11
2.7960	201.44	201.44
2.7960	201.95	201.95
2.7960	205.32	205.32
2.7960	209.07	209.07
2.7960	209.85	209.85
2.7960	215.04	215.04
2.7960	216.22	216.22
2.7960	219.38	219.38
2.7960	222.25	222.25
2.7960	222.35	222.35
2.7960	222.54	222.54
2.7960	222.54	222.54
2.7960	222.57	222.57
2.7960	222.66	222.66
2.7960	222.86	222.86
2.7960	223.26	223.26
2.7960	223.97	223.97
2.7960	224.59	224.59
2.7960	225.14	225.14
2.8274	83.957	83.957
2.8274	92.773	92.773
2.8274	99.306	99.306
2.8274	102.66	102.66
2.8274	107.27	107.27
2.8274	112.20	112.20
2.8274	115.48	115.48
2.8274	117.74	117.74
2.8274	124.31	124.31
2.8274	125.14	125.14
2.8274	133.06	133.06
2.8274	133.16	133.16
2.8274	141.39	141.39
2.8274	141.63	141.63
2.8274	149.75	149.75
2.8274	150.59	150.59
2.8274	157.60	157.60
2.8274	159.22	159.22
2.8274	165.25	165.25
2.8274	167.81	167.81
2.8274	172.38	172.38
2.8274	176.35	176.35
2.8274	178.74	178.74
2.8274	182.44	182.44
2.8274	183.91	183.91
2.8274	184.55	184.55
2.8274	187.19	187.19
2.8274	191.14	191.14
2.8274	192.69	192.69
2.8274	193.94	193.94
2.8274	198.40	198.40
2.8274	200.45	200.45
2.8274	203.28	203.28
2.8274	206.75	206.75
2.8274	208.03	208.03
2.8274	211.11	211.11
2.8274	215.09	215.09
2.8274	216.33	216.33
2.8274	220.80	220.80
2.8274	220.82	220.82
2.8274	222.72	222.72
2.8274	223.94	223.94
2.8274	224.34	224.34
2.8274	225.04	225.04
2.8274	225.04	225.04
2.8274	225.07	225.07
2.8274	225.15	225.15
2.8274	225.34	225.34
2.8274	225.72	225.72
2.8274	226.39	226.39
2.8588	84.891	84.891
2.8588	93.737	93.737
2.8588	100.22	100.22
2.8588	101.72	101.72
2.8588	108.16	108.16
2.8588	111.22	111.22
2.8588	116.36	116.36
2.8588	116.80	116.80
2.8588	124.24	124.24
2.8588	125.17	125.17
2.8588	132.27	132.27
2.8588	133.94	133.94
2.8588	140.76	140.76
2.8588	142.29	142.29
2.8588	149.72	149.72
2.8588	150.67	150.67
2.8588	158.34	158.34
2.8588	158.57	158.57
2.8588	166.26	166.26
2.8588	166.92	166.92
2.8588	173.47	173.47
2.8588	175.44	175.44
2.8588	180.00	180.00
2.8588	183.62	183.62
2.8588	184.16	184.16
2.8588	185.66	185.66
2.8588	188.60	188.60
2.8588	191.72	191.72
2.8588	192.65	192.65
2.8588	195.43	195.43
2.8588	199.45	199.45
2.8588	199.70	199.70
2.8588	204.60	204.60
2.8588	206.98	206.98
2.8588	208.20	208.20
2.8588	212.38	212.38
2.8588	213.94	213.94
2.8588	217.60	217.60
2.8588	219.27	219.27
2.8588	220.85	220.85
2.8588	222.23	222.23
2.8588	222.77	222.77
2.8588	225.46	225.46
2.8588	226.81	226.81
2.8588	227.54	227.54
2.8588	227.55	227.55
2.8588	227.57	227.57
2.8588	227.65	227.65
2.8588	227.83	227.83
2.8588	228.18	228.18
2.8903	85.825	85.825
2.8903	94.701	94.701
2.8903	100.78	100.78
2.8903	101.13	101.13
2.8903	109.04	109.04
2.8903	110.24	110.24
2.8903	115.87	115.87
2.8903	117.24	117.24
2.8903	123.34	123.34
2.8903	126.03	126.03
2.8903	131.39	131.39
2.8903	134.83	134.83
2.8903	139.89	139.89
2.8903	143.18	143.18
2.8903	148.85	148.85
2.8903	151.60	151.60
2.8903	157.45	157.45
2.8903	159.53	159.53
2.8903	166.03	166.03
2.8903	167.27	167.27
2.8903	174.52	174.52
2.8903	174.55	174.55
2.8903	181.23	181.23
2.8903	182.68	182.68
2.8903	185.82	185.82
2.8903	187.45	187.45
2.8903	190.05	190.05
2.8903	190.76	190.76
2.8903	194.14	194.14
2.8903	196.97	196.97
2.8903	198.45	198.45
2.8903	201.02	201.02
2.8903	205.90	205.90
2.8903	205.93	205.93
2.8903	209.67	209.67
2.8903	212.77	212.77
2.8903	213.66	213.66
2.8903	217.66	217.66
2.8903	218.87	218.87
2.8903	218.99	218.99
2.8903	221.25	221.25
2.8903	223.62	223.62
2.8903	225.28	225.28
2.8903	226.97	226.97
2.8903	227.83	227.83
2.8903	230.04	230.04
2.8903	230.05	230.05
2.8903	230.07	230.07
2.8903	230.15	230.15
2.8903	230.30	230.30
2.9217	86.759	86.759
2.9217	95.666	95.666
2.9217	99.848	99.848
2.9217	102.04	102.04
2.9217	109.26	109.26
2.9217	109.93	109.93
2.9217	114.94	114.94
2.9217	118.12	118.12
2.9217	122.44	122.44
2.9217	126.90	126.90
2.9217	130.50	130.50
2.9217	135.72	135.72
2.9217	139.02	139.02
2.9217	144.08	144.08
2.9217	147.98	147.98
2.9217	152.52	152.52
2.9217	156.56	156.56
2.9217	160.49	160.49
2.9217	165.15	165.15
2.9217	168.27	168.27
2.9217	173.60	173.60
2.9217	175.62	175.62
2.9217	181.75	181.75
2.9217	182.42	182.42
2.9217	187.43	187.43
2.9217	189.27	189.27
2.9217	189.78	189.78
2.9217	191.52	191.52
2.9217	195.60	195.60
2.9217	197.44	197.44
2.9217	198.53	198.53
2.9217	202.35	202.35
2.9217	204.86	204.86
2.9217	207.20	207.20
2.9217	211.13	211.13
2.9217	211.57	211.57
2.9217	214.96	214.96
2.9217	215.98	215.98
2.9217	217.15	217.15
2.9217	219.77	219.77
2.9217	220.12	220.12
2.9217	223.73	223.73
2.9217	224.98	224.98
2.9217	226.26	226.26
2.9217	228.46	228.46
2.9217	230.22	230.22
2.9217	232.26	232.26
2.9217	232.55	232.55
2.9217	232.55	232.55
2.9217	232.58	232.58
2.9531	87.693	87.693
2.9531	96.633	96.633
2.9531	98.912	98.912
2.9531	102.95	102.95
2.9531	108.29	108.29
2.9531	110.82	110.82
2.9531	114.01	114.01
2.9531	119.00	119.00
2.9531	121.54	121.54
2.9531	127.76	127.76
2.9531	129.61	129.61
2.9531	136.60	136.60
2.9531	138.15	138.15
2.9531	144.98	144.98
2.9531	147.11	147.11
2.9531	153.44	153.44
2.9531	155.67	155.67
2.9531	161.45	161.45
2.9531	164.26	164.26
2.9531	169.26	169.26
2.9531	172.69	172.69
2.9531	176.67	176.67
2.9531	180.81	180.81
2.9531	183.58	183.58
2.9531	188.81	188.81
2.9531	188.97	188.97
2.9531	191.10	191.10
2.9531	193.04	193.04
2.9531	196.42	196.42
2.9531	197.03	197.03
2.9531	200.12	200.12
2.9531	203.71	203.71
2.9531	203.78	203.78
2.9531	208.49	208.49
2.9531	210.34	210.34
2.9531	212.58	212.58
2.9531	214.24	214.24
2.9531	215.34	215.34
2.9531	216.27	216.27
2.9531	218.32	218.32
2.9531	221.36	221.36
2.9531	222.15	222.15
2.9531	224.74	224.74
2.9531	226.32	226.32
2.9531	228.88	228.88
2.9531	229.95	229.95
2.9531	233.50	233.50
2.9531	233.79	233.79
2.9531	235.05	235.05
2.9531	235.05	235.05
2.9845	88.628	88.628
2.9845	97.600	97.600
2.9845	97.977	97.977
2.9845	103.87	103.87
2.9845	107.31	107.31
2.9845	111.71	111.71
2.9845	113.08	113.08
2.9845	119.88	119.88
2.9845	120.64	120.64
2.9845	128.62	128.62
2.9845	128.72	128.72
2.9845	137.28	137.28
2.9845	137.48	137.48
2.9845	145.87	145.87
2.9845	146.24	146.24
2.9845	154.35	154.35
2.9845	154.79	154.79
2.9845	162.40	162.40
2.9845	163.36	163.36
2.9845	170.25	170.25
2.9845	171.76	171.76
2.9845	177.72	177.72
2.9845	179.87	179.87
2.9845	184.73	184.73
2.9845	187.83	187.83
2.9845	190.45	190.45
2.9845	192.93	192.93
2.9845	194.62	194.62
2.9845	195.40	195.40
2.9845	198.45	198.45
2.9845	201.72	201.72
2.9845	202.69	202.69
2.9845	205.09	205.09
2.9845	209.06	209.06
2.9845	209.78	209.78
2.9845	212.46	212.46
2.9845	213.57	213.57
2.9845	214.02	214.02
2.9845	216.88	216.88
2.9845	217.62	217.62
2.9845	220.54	220.54
2.9845	222.60	222.60
2.9845	223.25	223.25
2.9845	227.55	227.55
2.9845	227.63	227.63
2.9845	231.43	231.43
2.9845	232.08	232.08
2.9845	235.24	235.24
2.9845	235.54	235.54
2.9845	237.55	237.55
3.0159	89.562	89.562
3.0159	97.041	97.041
3.0159	98.568	98.568
3.0159	104.78	104.78
3.0159	106.34	106.34
3.0159	112.15	112.15
3.0159	112.60	112.60
3.0159	119.75	119.75
3.0159	120.76	120.76
3.0159	127.83	127.83
3.0159	129.49	129.49
3.0159	136.41	136.41
3.0159	138.36	138.36
3.0159	145.37	145.37
3.0159	146.77	146.77
3.0159	153.90	153.90
3.0159	155.26	155.26
3.0159	162.47	162.47
3.0159	163.35	163.35
3.0159	170.84	170.84
3.0159	171.24	171.24
3.0159	178.76	178.76
3.0159	178.92	178.92
3.0159	185.85	185.85
3.0159	186.84	186.84
3.0159	191.86	191.86
3.0159	194.38	194.38
3.0159	194.76	194.76
3.0159	196.25	196.25
3.0159	199.86	199.86
3.0159	201.59	201.59
3.0159	203.32	203.32
3.0159	206.49	206.49
3.0159	207.73	207.73
3.0159	210.64	210.64
3.0159	211.07	211.07
3.0159	211.85	211.85
3.0159	215.45	215.45
3.0159	215.45	215.45
3.0159	218.91	218.91
3.0159	218.99	218.99
3.0159	221.81	221.81
3.0159	223.84	223.84
3.0159	226.23	226.23
3.0159	228.93	228.93
3.0159	230.63	230.63
3.0159	232.90	232.90
3.0159	234.15	234.15
3.0159	236.65	236.65
3.0159	238.92	238.92
3.0473	90.497	90.497
3.0473	96.106	96.106
3.0473	99.536	99.536
3.0473	105.37	105.37
3.0473	105.70	105.70
3.0473	111.23	111.23
3.0473	113.49	113.49
3.0473	118.85	118.85
3.0473	121.64	121.64
3.0473	126.95	126.95
3.0473	130.35	130.35
3.0473	135.55	135.55
3.0473	139.24	139.24
3.0473	144.50	144.50
3.0473	147.66	147.66
3.0473	153.01	153.01
3.0473	156.17	156.17
3.0473	161.58	161.58
3.0473	164.30	164.30
3.0473	169.91	169.91
3.0473	172.21	172.21
3.0473	177.98	177.98
3.0473	179.80	179.80
3.0473	185.85	185.85
3.0473	186.96	186.96
3.0473	193.21	193.21
3.0473	193.34	193.34
3.0473	196.56	196.56
3.0473	197.93	197.93
3.0473	200.47	200.47
3.0473	201.26	201.26
3.0473	204.91	204.91
3.0473	206.34	206.34
3.0473	207.93	207.93
3.0473	208.80	208.80
3.0473	210.19	210.19
3.0473	212.36	212.36
3.0473	214.01	214.01
3.0473	216.85	216.85
3.0473	217.29	217.29
3.0473	220.39	220.39
3.0473	220.39	220.39
3.0473	224.91	224.91
3.0473	225.08	225.08
3.0473	229.17	229.17
3.0473	230.21	230.21
3.0473	232.78	232.78
3.0473	234.36	234.36
3.0473	237.68	237.68
3.0473	238.05	238.05
3.0788	91.431	91.431
3.0788	95.171	95.171
3.0788	100.51	100.51
3.0788	104.39	104.39
3.0788	106.62	106.62
3.0788	110.30	110.30
3.0788	114.38	114.38
3.0788	117.96	117.96
3.0788	122.52	122.52
3.0788	126.06	126.06
3.0788	131.22	131.22
3.0788	134.68	134.68
3.0788	140.12	140.12
3.0788	143.62	143.62
3.0788	148.55	148.55
3.0788	152.12	152.12
3.0788	157.08	157.08
3.0788	160.68	160.68
3.0788	165.24	165.24
3.0788	168.98	168.98
3.0788	173.18	173.18
3.0788	177.03	177.03
3.0788	180.82	180.82
3.0788	184.86	184.86
3.0788	188.05	188.05
3.0788	192.30	192.30
3.0788	194.51	194.51
3.0788	198.34	198.34
3.0788	199.33	199.33
3.0788	199.67	199.67
3.0788	202.67	202.67
3.0788	204.88	204.88
3.0788	206.49	206.49
3.0788	206.94	206.94
3.0788	208.59	208.59
3.0788	209.41	209.41
3.0788	212.55	212.55
3.0788	213.67	213.67
3.0788	215.66	215.66
3.0788	218.23	218.23
3.0788	219.01	219.01
3.0788	221.82	221.82
3.0788	223.59	223.59
3.0788	226.33	226.33
3.0788	227.70	227.70
3.0788	231.45	231.45
3.0788	231.47	231.47
3.0788	235.80	235.80
3.0788	236.45	236.45
3.0788	239.45	239.45
3.1102	92.366	92.366
3.1102	94.236	94.236
3.1102	101.48	101.48
3.1102	103.42	103.42
3.1102	107.54	107.54
3.1102	109.38	109.38
3.1102	115.28	115.28
3.1102	117.06	117.06
3.1102	123.41	123.41
3.1102	125.18	125.18
3.1102	132.08	132.08
3.1102	133.81	133.81
3.1102	141.00	141.00
3.1102	142.75	142.75
3.1102	149.45	149.45
3.1102	151.23	151.23
3.1102	157.98	157.98
3.1102	159.79	159.79
3.1102	166.18	166.18
3.1102	168.05	168.05
3.1102	174.15	174.15
3.1102	176.07	176.07
3.1102	181.84	181.84
3.1102	183.86	183.86
3.1102	189.13	189.13
3.1102	191.25	191.25
3.1102	195.77	195.77
3.1102	198.17	198.17
3.1102	200.06	200.06
3.1102	201.45	201.45
3.1102	203.34	203.34
3.1102	204.10	204.10
3.1102	205.10	205.10
3.1102	207.05	207.05
3.1102	208.04	208.04
3.1102	210.92	210.92
3.1102	211.07	211.07
3.1102	214.06	214.06
3.1102	214.98	214.98
3.1102	217.65	217.65
3.1102	219.59	219.59
3.1102	222.27	222.27
3.1102	223.27	223.27
3.1102	226.22	226.22
3.1102	227.58	227.58
3.1102	230.14	230.14
3.1102	232.73	232.73
3.1102	235.21	235.21
3.1102	237.23	237.23
3.1102	240.01	240.01
3.1416	93.301	93.301
3.1416	93.301	93.301
3.1416	102.45	102.45
3.1416	102.45	102.45
3.1416	108.46	108.46
3.1416	108.46	108.46
3.1416	116.17	116.17
3.1416	116.17	116.17
3.1416	124.29	124.29
3.1416	124.29	124.29
3.1416	132.95	132.95
3.1416	132.95	132.95
3.1416	141.87	141.87
3.1416	141.87	141.87
3.1416	150.34	150.34
3.1416	150.34	150.34
3.1416	158.89	158.89
3.1416	158.89	158.89
3.1416	167.12	167.12
3.1416	167.12	167.12
3.1416	175.11	175.11
3.1416	175.11	175.11
3.1416	182.85	182.85
3.1416	182.85	182.85
3.1416	190.19	190.19
3.1416	190.19	190.19
3.1416	196.98	196.98
3.1416	196.98	196.98
3.1416	201.74	201.74
3.1416	201.74	201.74
3.1416	203.26	203.26
3.1416	203.26	203.26
3.1416	205.55	205.55
3.1416	205.55	205.55
3.1416	209.57	209.57
3.1416	209.57	209.57
3.1416	212.47	212.47
3.1416	212.47	212.47
3.1416	216.31	216.31
3.1416	216.31	216.31
3.1416	220.94	220.94
3.1416	220.94	220.94
3.1416	224.74	224.74
3.1416	224.74	224.74
3.1416	228.85	228.85
3.1416	228.85	228.85
3.1416	233.97	233.97
3.1416	233.97	233.97
3.1416	238.63	238.63
3.1416	238.63	238.63